GYRO_DIFF, GYRO_X, GYRO_Y, GYRO_Z, ACC_DIFF, ACC_X, ACC_Y, ACC_Z, TOUCH_DOWN, TOUCH_X, TOUCH_Y, ID1, ID2 
65925164483464, -0.016189575, -0.18244934, -0.03488159, 65925164483464, -0.25556082, -0.4154296, -0.15712452, 0, 0, 0, -1, -1, 0, 0, 0
5035401, -0.012542725, -0.19221497, -0.015335083, 5035401, -0.032371998, -0.354177, -0.16164637, 0, 0, 0, -1, -1, 0, 0, 0
4943848, -0.006439209, -0.14944458, -0.027542114, 5035401, -0.032371998, -0.354177, -0.16164637, 0, 0, 0, -1, -1, 0, 0, 0
4943848, -0.007659912, -0.12135315, -0.022659302, 4943847, 0.16214687, -0.21811962, -0.16815996, 0, 0, 0, -1, -1, 0, 0, 0
4943847, -0.036956787, -0.10670471, 0.006652832, 4943848, 0.06932747, -0.20876884, -0.1944766, 0, 0, 0, -1, -1, 0, 0, 0
4943847, -0.036956787, -0.10670471, 0.006652832, 4943847, -0.28937006, -0.19961739, -0.28573608, 0, 0, 0, -1, -1, 0, 0, 0
4943848, -0.07116699, -0.034622192, 0.044509888, 4943847, -0.28937006, -0.19961739, -0.28573608, 0, 0, 0, -1, -1, 0, 0, 0
4943848, -0.07116699, -0.034622192, 0.044509888, 4943848, -0.21653819, -0.1819973, -0.20080662, 0, 0, 0, -1, -1, 0, 0, 0
5401611, -0.07972717, -0.019958496, 0.059173584, 5401611, -0.12044513, -0.15870571, -0.15669632, 0, 0, 0, -1, -1, 0, 0, 0
4516602, -0.07606506, -0.0065307617, 0.05307007, 4516602, -0.04671681, -0.14740038, -0.07787228, 0, 0, 0, -1, -1, 0, 0, 0
4974365, -0.072402954, -0.015060425, 0.028625488, 4516602, -0.04671681, -0.14740038, -0.07787228, 0, 0, 0, -1, -1, 0, 0, 0
4943848, -0.068725586, -0.026062012, 0.012741089, 4913330, -0.024828613, -0.10069466, -0.06519508, 0, 0, 0, -1, -1, 0, 0, 0
4943848, -0.068725586, -0.026062012, 0.012741089, 4943848, -0.061760485, -0.025921822, -0.052516937, 0, 0, 0, -1, -1, 0, 0, 0
4943847, -0.056518555, -0.0370636, -0.005569458, 4943848, -0.061760485, -0.025921822, -0.052516937, 0, 0, 0, -1, -1, 0, 0, 0
4943848, -0.047958374, -0.0370636, -0.0104522705, 4943848, 0.014302969, -0.019285202, -0.018636703, 0, 0, 0, -1, -1, 0, 0, 0
4913330, -0.047958374, -0.0370636, -0.0104522705, 4943847, 0.09124273, -0.0124902725, -0.061496735, 0, 0, 0, -1, -1, 0, 0, 0
4913330, -0.047958374, -0.0370636, -0.0104522705, 4913330, 0.109633684, -0.12575579, -0.044991016, 0, 0, 0, -1, -1, 0, 0, 0
4913330, -0.05039978, -0.019958496, -0.02999878, 4913330, 0.109633684, -0.12575579, -0.044991016, 0, 0, 0, -1, -1, 0, 0, 0
4974365, -0.051635742, 8.239746E-4, -0.02999878, 4974365, 0.045611918, -0.13648224, -0.015740871, 0, 0, 0, -1, -1, 0, 0, 0
4943848, -0.06506348, 0.019134521, -0.03366089, 4913330, -0.03508973, -0.13910103, 0.06423044, 0, 0, 0, -1, -1, 0, 0, 0
4943848, -0.06506348, 0.019134521, -0.03366089, 4943848, -0.12453014, -0.13672256, -1.3109045, 0, 0, 0, -1, -1, 0, 0, 0
4943848, -0.08705139, -0.059051514, -0.036102295, 4943848, -0.1588065, -0.11957359, -1.8408117, 0, 0, 0, -1, -1, 0, 0, 0
4913330, -0.16157532, -0.25941467, -0.036102295, 4913330, -0.31781286, -0.08715534, -1.4033937, 0, 0, 0, -1, -1, 0, 0, 0
4974365, -0.2519989, -0.43899536, -0.04586792, 4974365, -0.30166358, -0.0038318634, -0.8426266, 0, 0, 0, -1, -1, 0, 0, 0
7019043, -0.35339355, -0.56851196, -0.05810547, 7019043, -0.117363214, 0.10329437, -0.24779844, 0, 0, 0, -1, -1, 0, 0, 0
5065918, -0.34117126, -0.5074158, -0.072753906, 5065918, 0.13426167, 0.10087967, 0.50376177, 0, 0, 0, -1, -1, 0, 0, 0
5004883, -0.30451965, -0.40234375, -0.09107971, 5004883, 0.30199718, 0.05873251, 0.95103407, 0, 0, 0, -1, -1, 0, 0, 0
5065918, -0.26420593, -0.40234375, -0.10574341, 5065918, 0.39448136, -0.04349518, 0.9524698, 0, 0, 0, -1, -1, 0, 0, 0
5035400, -0.26420593, -0.3070526, -0.10574341, 5035400, 0.35838085, -0.14513779, 0.9344034, 0, 0, 0, -1, -1, 0, 0, 0
4913330, -0.22267151, -0.2227478, -0.10574341, 4913330, 0.28175455, -0.23077297, 0.9895892, 0, 0, 0, -1, -1, 0, 0, 0
4943848, -0.18966675, -0.15556335, -0.103302, 4943848, 0.15624219, -0.3156314, 1.3282418, 0, 0, 0, -1, -1, 0, 0, 0
4943848, -0.15791321, -0.103027344, -0.10696411, 4943848, -0.04411632, -0.39261007, 1.7015753, 0, 0, 0, -1, -1, 0, 0, 0
4943847, -0.07972717, -0.039505005, -0.088638306, 4943847, -0.062684536, -0.4550581, 1.7770834, 0, 0, 0, -1, -1, 0, 0, 0
4943848, 0.03388977, 0.03866577, -0.056869507, 4943848, 0.07870734, -0.46876, 1.5019283, 0, 0, 0, -1, -1, 0, 0, 0
4974365, 0.14016724, 0.11074829, -0.023895264, 4974365, 0.35861665, -0.3187356, 0.97976303, 0, 0, 0, -1, -1, 0, 0, 0
4943848, 0.23425293, 0.15716553, -0.03366089, 4943848, 0.2869962, -0.16479206, 0.33858776, 0, 0, 0, -1, -1, 0, 0, 0
4943847, 0.30387878, 0.18283081, -0.04222107, 4943847, 0.02903229, -0.001262188, -0.3378048, 0, 0, 0, -1, -1, 0, 0, 0
4943848, 0.3295288, 0.1926117, -0.028778076, 4943848, -0.09196597, 3.4475327E-4, -1.0293036, 0, 0, 0, -1, -1, 0, 0, 0
4943848, 0.3087616, 0.17060852, -0.008010864, 4943848, -0.121611655, 0.056904793, -1.5500546, 0, 0, 0, -1, -1, 0, 0, 0
4943847, 0.25502014, 0.1278534, -6.866455E-4, 4943847, -0.17257959, 0.099538326, -1.8998566, 0, 0, 0, -1, -1, 0, 0, 0
4913331, 0.19148254, 0.06311035, 0.0115356445, 4913331, -0.068933606, 0.08351946, -2.1490731, 0, 0, 0, -1, -1, 0, 0, 0
4943847, 0.103515625, 8.239746E-4, 0.012741089, 4943847, 0.08086753, 0.0024666786, -2.2034097, 0, 0, 0, -1, -1, 0, 0, 0
4974365, 0.011886597, -0.0712738, 0.012741089, 4974365, 0.16746104, -0.024763584, -2.217547, 0, 0, 0, -1, -1, 0, 0, 0
4943848, -0.0894928, -0.123794556, 0.02130127, 4943848, 0.20367587, -0.005253315, -2.0150285, 0, 0, 0, -1, -1, 0, 0, 0
4943848, -0.19334412, -0.14212036, 0.027420044, 4943848, 0.17115754, -0.09127045, -1.6973634, 0, 0, 0, -1, -1, 0, 0, 0
4943847, -0.27397156, -0.12991333, 0.032302856, 4943847, 0.12084532, -0.13320732, -1.4537096, 0, 0, 0, -1, -1, 0, 0, 0
4943848, -0.35827637, -0.095703125, 0.022521973, 4943848, 0.09762055, -0.15843725, -1.2626381, 0, 0, 0, -1, -1, 0, 0, 0
4943848, -0.4242401, -0.027297974, 0.017623901, 4943848, 0.021731138, -0.14047527, -0.90074825, 0, 0, 0, -1, -1, 0, 0, 0
4913330, -0.4804535, 0.055786133, 0.024978638, 4913330, -0.069086015, -0.12508726, -0.49003506, 0, 0, 0, -1, -1, 0, 0, 0
4943847, -0.5256653, 0.13519287, 0.027420044, 4943847, -0.08603531, -0.09569216, -0.025471687, 0, 0, 0, -1, -1, 0, 0, 0
4974366, -0.5378723, 0.21826172, 0.02130127, 4974366, -0.05024582, -0.104846, 0.31225872, 0, 0, 0, -1, -1, 0, 0, 0
5035400, -0.5122223, 0.32943726, -0.0031280518, 4974366, -0.05024582, -0.104846, 0.31225872, 0, 0, 0, -1, -1, 0, 0, 0
5035400, -0.5122223, 0.32943726, -0.0031280518, 5035400, 0.010548949, -0.20981169, 0.94744015, 0, 0, 0, -1, -1, 0, 0, 0
5065918, -0.47312927, 0.36486816, -0.0104522705, 5065918, -0.041798413, -0.22239637, 1.0307212, 0, 0, 0, -1, -1, 0, 0, 0
5035400, -0.4059143, 0.37831116, -0.037338257, 5035400, -0.16354245, -0.26038694, 1.0378656, 0, 0, 0, -1, -1, 0, 0, 0
4943847, -0.29841614, 0.35998535, -0.04222107, 5035400, -0.16354245, -0.26038694, 1.0378656, 0, 0, 0, -1, -1, 0, 0, 0
4943848, -0.22511292, 0.33921814, -0.039779663, 5035401, -0.26064152, -0.27837324, 1.0133848, 0, 0, 0, -1, -1, 0, 0, 0
4943848, -0.22511292, 0.33921814, -0.039779663, 4943848, -0.39326125, -0.28163385, 1.0448532, 0, 0, 0, -1, -1, 0, 0, 0
4943848, -0.16645813, 0.29888916, -0.021453857, 4943848, -0.4749561, -0.25927258, 1.0023842, 0, 0, 0, -1, -1, 0, 0, 0
4913330, -0.03086853, 0.21702576, 0.020065308, 4943848, -0.4749561, -0.25927258, 1.0023842, 0, 0, 0, -1, -1, 0, 0, 0
4943848, 0.047317505, 0.1620636, 0.048187256, 4943847, -0.56113297, -0.2733798, 0.9369869, 0, 0, 0, -1, -1, 0, 0, 0
4943848, 0.11329651, 0.1327362, 0.0335083, 4913330, -0.60707825, -0.293293, 0.929574, 0, 0, 0, -1, -1, 0, 0, 0
4943848, 0.11329651, 0.1327362, 0.0335083, 4943848, 0.08110398, 0.12737942, 1.1433535, 0, 0, 0, -1, -1, 0, 0, 0
4974365, 0.18659973, 0.07531738, -0.0104522705, 4974365, 0.11278677, -0.00986433, 0.5910082, 0, 0, 0, -1, -1, 0, 0, 0
4913330, 0.2110138, -0.022399902, -0.019012451, 4974365, 0.11278677, -0.00986433, 0.5910082, 0, 0, 0, -1, -1, 0, 0, 0
4974365, 0.18536377, -0.034622192, 0.007858276, 4943848, 0.017805994, -0.001045227, 0.3218403, 0, 0, 0, -1, -1, 0, 0, 0
4943848, 0.18536377, -0.034622192, 0.055511475, 4913330, -0.30539775, 0.007909298, -0.14691544, 0, 0, 0, -1, -1, 0, 0, 0
4943847, 0.12918091, -0.0016174316, 0.055511475, 4974365, -0.43028116, -0.13382435, -0.4436531, 0, 0, 0, -1, -1, 0, 0, 0
4943848, 0.07418823, 0.060668945, 0.07872009, 4943848, -0.2590397, -0.17322302, -0.5938158, 0, 0, 0, -1, -1, 0, 0, 0
4943848, 0.019210815, 0.1156311, 0.08728027, 4943847, -0.0014155507, -0.13964748, -0.75187683, 0, 0, 0, -1, -1, 0, 0, 0
4943847, -0.03819275, 0.1608429, 0.06283569, 4943848, 0.302356, -0.036409378, -0.8167324, 0, 0, 0, -1, -1, 0, 0, 0
4943848, -0.07972717, 0.17549133, 0.0335083, 4943848, 0.51244617, 0.07068825, -0.78454304, 0, 0, 0, -1, -1, 0, 0, 0
4913330, -0.1212616, 0.17549133, -0.01411438, 4943847, 0.555704, 0.14314127, -0.83045006, 0, 0, 0, -1, -1, 0, 0, 0
4913330, -0.1212616, 0.17549133, -0.01411438, 4913330, 0.26809943, 0.09880304, -0.68717, 0, 0, 0, -1, -1, 0, 0, 0
4943848, -0.1395874, 0.15351868, -0.0703125, 4943848, 0.19314295, 0.190691, -0.43923664, 0, 0, 0, -1, -1, 0, 0, 0
4943848, -0.1212616, 0.1437378, -0.1326294, 4943848, 0.19314295, 0.190691, -0.43923664, 0, 0, 0, -1, -1, 0, 0, 0
4943847, -0.104156494, 0.120529175, -0.16194153, 4974365, 0.14344376, 0.13599443, -0.14393234, 0, 0, 0, -1, -1, 0, 0, 0
4943847, -0.104156494, 0.120529175, -0.16194153, 4943847, -0.027771354, -0.21058464, -0.06896973, 0, 0, 0, -1, -1, 0, 0, 0
7049561, -0.084609985, 0.09120178, -0.15216064, 7049561, -0.13325948, -0.26475143, 0.13457203, 0, 0, 0, -1, -1, 0, 0, 0
5004883, -0.07606506, 0.07165527, -0.15216064, 5004883, -0.43895403, -0.35802937, 0.06416893, 0, 0, 0, -1, -1, 0, 0, 0
5035400, -0.06996155, 0.06921387, -0.108184814, 5035400, -0.737589, -0.4143896, 0.089473724, 0, 0, 0, -1, -1, 0, 0, 0
5065918, -0.084609985, 0.10586548, -0.060546875, 5065918, -0.6892103, -0.4017067, 0.3078518, 0, 0, 0, -1, -1, 0, 0, 0
5004883, -0.091934204, 0.15716553, -0.0018920898, 5004883, -0.39595947, -0.3059411, 0.44259167, 0, 0, 0, -1, -1, 0, 0, 0
4974365, -0.08583069, 0.20237732, 0.03718567, 4974365, -0.1815097, -0.28105354, 0.45779705, 0, 0, 0, -1, -1, 0, 0, 0
4913330, -0.0736084, 0.23046875, 0.048187256, 4913330, -0.123962045, -0.10046387, 0.36217308, 0, 0, 0, -1, -1, 0, 0, 0
4943848, -0.055282593, 0.24147034, 0.048187256, 4943848, -0.03365189, -0.015684128, 0.20123386, 0, 0, 0, -1, -1, 0, 0, 0
4974365, -0.039398193, 0.2427063, 0.044509888, 4974365, -0.13260034, 0.028819561, 0.054944992, 0, 0, 0, -1, -1, 0, 0, 0
4913330, -0.039398193, 0.25123596, 0.02986145, 4913330, -0.026834816, 0.064407825, -0.04543972, 0, 0, 0, -1, -1, 0, 0, 0
4974365, -0.036956787, 0.27323914, 0.010299683, 4974365, 0.2571957, 0.1306653, -0.0039024353, 0, 0, 0, -1, -1, 0, 0, 0
4943848, -0.044296265, 0.27568054, -0.008010864, 4943848, 0.08299488, 0.13007641, -0.14829826, 0, 0, 0, -1, -1, 0, 0, 0
4943848, -0.052841187, 0.28544617, -0.02633667, 4943848, -0.07624838, 0.022038937, -0.31344032, 0, 0, 0, -1, -1, 0, 0, 0
4943847, -0.072402954, 0.29768372, -0.022659302, 4943847, -0.15624419, -0.086182594, -0.38250828, 0, 0, 0, -1, -1, 0, 0, 0
4943848, -0.1065979, 0.31721497, -0.019012451, 4943848, -0.20946425, -0.16043091, -0.4593773, 0, 0, 0, -1, -1, 0, 0, 0
4913330, -0.14202881, 0.32577515, 0.0029907227, 4913330, -0.20179069, -0.2416544, -0.44483948, 0, 0, 0, -1, -1, 0, 0, 0
4974365, -0.1737976, 0.33065796, 0.012741089, 4974365, -0.16531059, -0.2653985, -0.31123447, 0, 0, 0, -1, -1, 0, 0, 0
4943848, -0.19334412, 0.31111145, 0.0115356445, 4943848, -0.046106547, -0.26515532, -0.2767372, 0, 0, 0, -1, -1, 0, 0, 0
4943847, -0.19946289, 0.29034424, 0.012741089, 4943847, -0.0076163113, -0.22620773, -0.06526661, 0, 0, 0, -1, -1, 0, 0, 0
4943848, -0.20066833, 0.27568054, 0.009094238, 4943848, -0.036709875, -0.31694174, -0.057955742, 0, 0, 0, -1, -1, 0, 0, 0
4913330, -0.19578552, 0.2610321, 0.009094238, 4913330, 0.22209384, -0.257483, 0.42450333, 0, 0, 0, -1, -1, 0, 0, 0
4943848, -0.16889954, 0.23538208, 0.012741089, 4943848, -0.0200665, -0.04742527, 0.68983173, 0, 0, 0, -1, -1, 0, 0, 0
4943848, -0.14692688, 0.22314453, 0.031066895, 4943848, -0.4137725, 0.017914295, 0.7193737, 0, 0, 0, -1, -1, 0, 0, 0
4974365, -0.11515808, 0.20726013, 0.054275513, 4974365, -0.5417526, 0.0063114166, 0.7503462, 0, 0, 0, -1, -1, 0, 0, 0
4943847, -0.100494385, 0.1767273, 0.08482361, 4943847, -0.57761514, 0.027361393, 0.8003988, 0, 0, 0, -1, -1, 0, 0, 0
4943848, -0.07728577, 0.1302948, 0.1129303, 4943848, -0.50112426, -0.006085396, 0.8313713, 0, 0, 0, -1, -1, 0, 0, 0
4943848, -0.05039978, 0.08143616, 0.12635803, 4943848, -0.38013312, -0.044739246, 0.8284321, 0, 0, 0, -1, -1, 0, 0, 0
5035401, 0.027770996, -0.019958496, 0.12147522, 4943848, -0.38013312, -0.044739246, 0.8284321, 0, 0, 0, -1, -1, 0, 0, 0
5035400, 0.06808472, -0.052947998, 0.111709595, 7049560, -0.059683204, -0.060081005, 0.7050419, 0, 0, 0, -1, -1, 0, 0, 0
5035400, 0.08518982, -0.056610107, 0.10437012, 5035401, -0.018442571, -0.08012104, 0.61087704, 0, 0, 0, -1, -1, 0, 0, 0
5035401, 0.08152771, -4.119873E-4, 0.0811615, 5035400, 0.1110836, -0.24030876, 0.37843227, 0, 0, 0, -1, -1, 0, 0, 0
4943848, 0.07052612, 0.06555176, 0.07261658, 5035400, 0.40970385, -0.33451128, 0.17553043, 0, 0, 0, -1, -1, 0, 0, 0
4943847, 0.043655396, 0.100982666, 0.067718506, 5035401, 0.32558954, -0.055488586, 0.049096107, 0, 0, 0, -1, -1, 0, 0, 0
4943847, 0.043655396, 0.100982666, 0.067718506, 4943847, 0.70161146, -0.4387846, -0.51900005, 0, 0, 0, -1, -1, 0, 0, 0
4943848, -0.0039978027, 0.1461792, 0.035949707, 4943848, 0.8951427, -0.4121709, -0.5949774, 0, 0, 0, -1, -1, 0, 0, 0
4913331, -0.093170166, 0.1974945, -0.051986694, 4943848, 0.8951427, -0.4121709, -0.5949774, 0, 0, 0, -1, -1, 0, 0, 0
4943847, -0.14202881, 0.19993591, -0.08131409, 4943847, 0.8222289, -0.398355, -0.44609165, 0, 0, 0, -1, -1, 0, 0, 0
4943848, -0.16769409, 0.20117188, -0.116744995, 4913331, 0.8902314, -0.53185034, -0.6003313, 0, 0, 0, -1, -1, 0, 0, 0
4943848, -0.16769409, 0.20117188, -0.116744995, 4943848, 0.4825722, -0.32340336, -0.15294838, 0, 0, 0, -1, -1, 0, 0, 0
4974365, -0.1530304, 0.20726013, -0.13871765, 4974365, 0.3647958, -0.002623558, 0.31040478, 0, 0, 0, -1, -1, 0, 0, 0
4943848, -0.1078186, 0.2451477, -0.13383484, 4943848, 0.25767592, 0.116053104, 0.1680355, 0, 0, 0, -1, -1, 0, 0, 0
4974365, -0.07606506, 0.27812195, -0.12162781, 4943848, 0.25767592, 0.116053104, 0.1680355, 0, 0, 0, -1, -1, 0, 0, 0
4943848, -0.057724, 0.30500793, -0.120407104, 4913330, 0.22341503, 0.29872608, 0.08031559, 0, 0, 0, -1, -1, 0, 0, 0
4943847, -0.04673767, 0.34898376, -0.11550903, 4974365, 0.18013747, 0.624279, 0.23048973, 0, 0, 0, -1, -1, 0, 0, 0
4943848, -0.05407715, 0.38809204, -0.0874176, 4943848, -0.1257097, 0.71443796, 0.32503605, 0, 0, 0, -1, -1, 0, 0, 0
4943848, -0.05407715, 0.38809204, -0.040985107, 4943847, -0.36978865, 0.60126257, 0.15791416, 0, 0, 0, -1, -1, 0, 0, 0
4943848, -0.05407715, 0.38809204, -0.040985107, 4943848, -1.1101348, 0.9668546, 0.6487417, 0, 0, 0, -1, -1, 0, 0, 0
4913330, -0.018630981, 0.31233215, 0.092163086, 4943848, -1.1101348, 0.9668546, 0.6487417, 0, 0, 0, -1, -1, 0, 0, 0
4943848, 0.004562378, 0.25735474, 0.15324402, 4943847, -0.9552049, 0.7829981, 0.6333618, 0, 0, 0, -1, -1, 0, 0, 0
4974365, -0.0039978027, 0.22802734, 0.18745422, 4913330, -0.5358743, 0.43134403, 0.43395233, 0, 0, 0, -1, -1, 0, 0, 0
4943848, -0.033309937, 0.2402649, 0.18501282, 4943848, -0.026038267, 0.07638693, 0.32155323, 0, 0, 0, -1, -1, 0, 0, 0
4943848, -0.033309937, 0.2402649, 0.18501282, 4943848, 0.5221335, -0.20907497, -0.43810177, 0, 0, 0, -1, -1, 0, 0, 0
4943848, -0.06506348, 0.25491333, 0.15568542, 4943848, 0.48156592, -0.19049692, -0.83147717, 0, 0, 0, -1, -1, 0, 0, 0
4943847, -0.1065979, 0.25003052, 0.13735962, 4943847, 0.43768683, -0.20701408, -1.3497944, 0, 0, 0, -1, -1, 0, 0, 0
7019043, -0.18478394, 0.23782349, 0.11048889, 7019043, 0.46757966, -0.28345537, -1.8688326, 0, 0, 0, -1, -1, 0, 0, 0
5035401, -0.26664734, 0.22802734, 0.07627869, 5035401, 0.0062134787, -0.33919287, -1.9826803, 0, 0, 0, -1, -1, 0, 0, 0
5065918, -0.36193848, 0.22070313, 0.056732178, 5065918, -0.24065112, -0.3053131, -1.9703331, 0, 0, 0, -1, -1, 0, 0, 0
5035400, -0.4328003, 0.2402649, 0.038406372, 5035400, -0.1320691, -0.02957201, -1.7807922, 0, 0, 0, -1, -1, 0, 0, 0
5035400, -0.5, 0.22070313, 0.026184082, 5035400, -0.10368645, 0.1784215, -1.2925053, 0, 0, 0, -1, -1, 0, 0, 0
4943848, -0.5488739, 0.1620636, 0.032302856, 4943848, -0.06901675, 0.23410273, -0.8006611, 0, 0, 0, -1, -1, 0, 0, 0
4943848, -0.5757446, 0.10708618, 0.048187256, 4943848, -0.1317159, -0.03763199, -0.38903427, 0, 0, 0, -1, -1, 0, 0, 0
4943847, -0.6075134, 0.09120178, 0.04206848, 4943847, 0.10883865, -0.0013380051, -0.0849247, 0, 0, 0, -1, -1, 0, 0, 0
4943848, -0.61483765, 0.07287598, 0.017623901, 4943848, 0.25217432, 0.08630848, 0.14295769, 0, 0, 0, -1, -1, 0, 0, 0
4943848, -0.57818604, 0.07775879, -0.023895264, 4943848, 0.35609913, 0.19932938, 0.4281845, 0, 0, 0, -1, -1, 0, 0, 0
4913330, -0.5305481, 0.08753967, -0.0715332, 4913330, 0.34767517, 0.26620626, 0.77759075, 0, 0, 0, -1, -1, 0, 0, 0
4974365, -0.4645691, 0.11930847, -0.11795044, 4974365, 0.33648816, 0.25407076, 1.0044279, 0, 0, 0, -1, -1, 0, 0, 0
4943848, -0.37904358, 0.13639832, -0.169281, 4943848, 0.30829847, 0.22010803, 1.1747828, 0, 0, 0, -1, -1, 0, 0, 0
4943847, -0.27885437, 0.12663269, -0.23158264, 4943847, 0.20546758, 0.23004293, 1.3524132, 0, 0, 0, -1, -1, 0, 0, 0
4943848, -0.19578552, 0.11074829, -0.27799988, 4943848, 0.21779339, 0.1877451, 1.506135, 0, 0, 0, -1, -1, 0, 0, 0
4913330, -0.08583069, 0.08753967, -0.31954956, 4913330, 0.20734408, 0.08782339, 1.5294333, 0, 0, 0, -1, -1, 0, 0, 0
4974365, 0.015563965, 0.06921387, -0.35620117, 4974365, 0.21028414, 0.02694273, 1.5916309, 0, 0, 0, -1, -1, 0, 0, 0
4943848, 0.12918091, 0.047225952, -0.3794098, 4943848, 0.3107437, -0.0019135475, 1.5004416, 0, 0, 0, -1, -1, 0, 0, 0
4943848, 0.24645996, 0.009353638, -0.400177, 4943848, 0.09653132, -0.14375973, 1.1533642, 0, 0, 0, -1, -1, 0, 0, 0
4913330, 0.3295288, -0.026062012, -0.4197235, 4913330, -0.13513587, -0.21042156, 1.0412331, 0, 0, 0, -1, -1, 0, 0, 0
4943847, 0.41381836, -0.055389404, -0.42582703, 4943847, -0.28562754, -0.28362608, 0.8567133, 0, 0, 0, -1, -1, 0, 0, 0
4943848, 0.48103333, -0.08226013, -0.4209442, 4943848, -0.4315341, -0.34252596, 0.75409794, 0, 0, 0, -1, -1, 0, 0, 0
4943848, 0.516449, -0.12135315, -0.39405823, 4943848, -0.5185511, -0.33274603, 0.408638, 0, 0, 0, -1, -1, 0, 0, 0
4943847, 0.52500916, -0.15800476, -0.3781891, 4943847, -0.5615066, -0.34904385, -0.023039818, 0, 0, 0, -1, -1, 0, 0, 0
4974366, 0.51890564, -0.19345093, -0.3671875, 4974366, -0.62240756, -0.2486434, -0.41700172, 0, 0, 0, -1, -1, 0, 0, 0
4943847, 0.48835754, -0.25086975, -0.34397888, 4943847, -0.6305633, -0.22147799, -0.73257446, 0, 0, 0, -1, -1, 0, 0, 0
4913330, 0.48835754, -0.25086975, -0.3293152, 4913330, -0.6479818, -0.18619537, -1.0104904, 0, 0, 0, -1, -1, 0, 0, 0
5004883, 0.26600647, -0.4194641, -0.25479126, 4913330, -0.6479818, -0.18619537, -1.0104904, 0, 0, 0, -1, -1, 0, 0, 0
5004883, 0.26600647, -0.4194641, -0.25479126, 5004883, -1.0007586, -0.17723513, -0.6061859, 0, 0, 0, -1, -1, 0, 0, 0
5035400, 0.12794495, -0.3143921, -0.20349121, 5004883, -1.0007586, -0.17723513, -0.6061859, 0, 0, 0, -1, -1, 0, 0, 0
5065918, 0.0448761, -0.24842834, -0.17904663, 5035401, -0.98352146, -0.3553772, -0.5561199, 0, 0, 0, -1, -1, 0, 0, 0
5065918, 0.0448761, -0.24842834, -0.17904663, 5065918, -0.8724721, -0.54815626, -0.4321766, 0, 0, 0, -1, -1, 0, 0, 0
4913330, -0.09439087, -0.092041016, -0.14361572, 5065918, -0.8724721, -0.54815626, -0.4321766, 0, 0, 0, -1, -1, 0, 0, 0
4913330, -0.09439087, -0.092041016, -0.14361572, 4913330, -0.7991651, -0.62382746, -0.120612144, 0, 0, 0, -1, -1, 0, 0, 0
4974366, -0.16036987, 0.0105896, -0.08985901, 4913330, -0.7991651, -0.62382746, -0.120612144, 0, 0, 0, -1, -1, 0, 0, 0
4943847, -0.18357849, 0.039901733, -0.056869507, 4943847, -0.82213986, -0.58108234, 0.031206131, 0, 0, 0, -1, -1, 0, 0, 0
4943848, -0.21166992, 0.08143616, -0.025100708, 4974366, -0.7223796, -0.5707426, 0.09887123, 0, 0, 0, -1, -1, 0, 0, 0
4943848, -0.21166992, 0.08143616, -0.025100708, 4943848, -0.4860667, -0.4221201, 0.27581215, 0, 0, 0, -1, -1, 0, 0, 0
4943848, -0.20555115, 0.08143616, 0.012741089, 4943848, -0.44146028, -0.35682917, 0.4479084, 0, 0, 0, -1, -1, 0, 0, 0
4943848, -0.19578552, 0.15228271, 0.02986145, 4943848, -0.44146028, -0.35682917, 0.4479084, 0, 0, 0, -1, -1, 0, 0, 0
4943848, -0.19578552, 0.15228271, 0.02986145, 4943848, -0.24247956, -0.13854408, 0.5229082, 0, 0, 0, -1, -1, 0, 0, 0
4943848, -0.18478394, 0.1816101, 0.035949707, 4943848, -0.002465561, -0.08308411, 0.45224857, 0, 0, 0, -1, -1, 0, 0, 0
4943847, -0.17869568, 0.2109375, 0.051834106, 4943847, 0.07871124, -0.096719265, 0.41997528, 0, 0, 0, -1, -1, 0, 0, 0
4943848, -0.15791321, 0.2610321, 0.054275513, 4943848, 0.046465248, -0.1320548, 0.37134266, 0, 0, 0, -1, -1, 0, 0, 0
4943847, -0.15057373, 0.30133057, 0.05795288, 4943847, 0.18624564, -0.07902622, 0.3729105, 0, 0, 0, -1, -1, 0, 0, 0
4943848, -0.1383667, 0.35388184, 0.06895447, 4943847, 0.18624564, -0.07902622, 0.3729105, 0, 0, 0, -1, -1, 0, 0, 0
4943848, -0.1383667, 0.35388184, 0.06895447, 4943848, 0.3144691, 0.06256056, 0.17271519, 0, 0, 0, -1, -1, 0, 0, 0
4943848, -0.1566925, 0.38319397, 0.083602905, 4943848, 0.3144691, 0.06256056, 0.17271519, 0, 0, 0, -1, -1, 0, 0, 0
4943848, -0.1566925, 0.38319397, 0.083602905, 4943848, 0.18778972, 0.03367138, -0.15032578, 0, 0, 0, -1, -1, 0, 0, 0
4943847, -0.17990112, 0.41862488, 0.12269592, 4943848, 0.18778972, 0.03367138, -0.15032578, 0, 0, 0, -1, -1, 0, 0, 0
4943847, -0.17990112, 0.41862488, 0.12269592, 4943847, 0.32910603, 0.040472984, 0.026465416, 0, 0, 0, -1, -1, 0, 0, 0
5249024, -0.17745972, 0.45283508, 0.095825195, 4943847, 0.32910603, 0.040472984, 0.026465416, 0, 0, 0, -1, -1, 0, 0, 0
4638671, -0.17869568, 0.3917389, 0.060394287, 4943848, 0.6312769, 0.19667387, 0.23979759, 0, 0, 0, -1, -1, 0, 0, 0
4638671, -0.17869568, 0.3917389, 0.060394287, 4638671, 0.5436487, 0.2374816, 0.40461063, 0, 0, 0, -1, -1, 0, 0, 0
7049561, -0.18478394, 0.33065796, 0.018859863, 7049561, 0.2001144, 0.29485655, 0.62170315, 0, 0, 0, -1, -1, 0, 0, 0
5004883, -0.18357849, 0.27079773, -0.0031280518, 5004883, -0.1570391, 0.2172761, 0.7778425, 0, 0, 0, -1, -1, 0, 0, 0
5035400, -0.16645813, 0.20605469, 5.493164E-4, 5035400, -0.28712228, 0.090821266, 0.90629005, 0, 0, 0, -1, -1, 0, 0, 0
5065918, -0.1224823, 0.1791687, 0.023742676, 5065918, -0.50452554, -0.24306059, 0.63884544, 0, 0, 0, -1, -1, 0, 0, 0
5004883, -0.021072388, 0.40151978, 0.02986145, 5004883, -0.46993372, -0.6433759, -0.8067856, 0, 0, 0, -1, -1, 0, 0, 0
4943848, 0.0778656, 0.8437805, 0.048187256, 4943848, -0.1625708, -0.781425, -1.6208715, 0, 0, 0, -1, -1, 0, 0, 0
4943847, 0.09251404, 1.0588074, 0.054275513, 4943847, -0.076598674, -0.6937785, -1.7806492, 0, 0, 0, -1, -1, 0, 0, 0
4943848, 0.048538208, 1.047821, 0.04574585, 4943848, -0.18124056, -0.53994703, -1.6916571, 0, 0, 0, -1, -1, 0, 0, 0
4943848, -0.05407715, 0.8804474, 0.032302856, 4943848, -0.30040014, -0.21144772, -1.6636848, 1, 950, 1059, 0, -1, 0, 0, 59341029002517
4943847, -0.12860107, 0.63487244, 0.0335083, 4943847, -0.4642781, 0.10914326, -1.1829414, 0, 0, 0, 0, -1, 0, 0, 0
4943848, -0.17623901, 0.39541626, 0.04206848, 4943848, -0.44776314, 0.35537195, -0.24167633, 0, 0, 0, 0, -1, 0, 0, 0
4943848, -0.19090271, 0.20237732, 0.034744263, 4943848, -0.26859075, 0.53424215, 0.6529846, 0, 0, 0, 0, -1, 0, 0, 0
4943847, -0.1725769, 0.04234314, 0.017623901, 4943847, -0.011291742, 0.60107756, 1.4315977, 0, 0, 0, 0, -1, 0, 0, 0
4943848, -0.12614441, -0.07249451, -0.009216309, 4943848, 0.14363599, 0.47287083, 1.7895956, 0, 0, 0, 0, -1, 0, 0, 0
4943847, -0.05039978, -0.111587524, -0.021453857, 4943847, 0.36345416, 0.32665014, 1.8560762, 0, 0, 0, 0, -1, 0, 0, 0
4943848, 0.04121399, -0.12623596, -0.03366089, 4943848, 0.35143006, 0.12400675, 1.7134409, 0, 0, 0, 0, -1, 0, 0, 0
4943848, 0.11206055, -0.14335632, -0.040985107, 4943848, 0.13280493, -0.09782696, 1.4218178, 0, 0, 0, 0, -1, 0, 0, 0
4913330, 0.18048096, -0.19465637, -0.05076599, 4913330, -0.087685704, -0.28789282, 1.128128, 0, 0, 0, 0, -1, 0, 0, 0
4974365, 0.23425293, -0.2728424, -0.040985107, 4974365, -0.24917072, -0.30629635, 0.9249182, 0, 0, 0, 0, -1, 0, 0, 0
4943848, 0.27334595, -0.3327179, -0.019012451, 4943848, -0.3465801, -0.32508183, 0.62517166, 0, 0, 0, 0, -1, 0, 0, 0
4943847, 0.3063202, -0.3534851, 5.493164E-4, 4943847, -0.32109398, -0.39656782, 0.3983221, 0, 0, 0, 0, -1, 0, 0, 0
4943848, 0.3258667, -0.3534851, 0.013977051, 4943848, 0.11259282, -0.8861165, 0.20246792, 0, 0, 0, 0, -1, 0, 0, 0
4943848, 0.3368683, -0.3192749, -0.0018920898, 4943848, 0.29517376, -1.0238805, -0.28851128, 0, 0, 0, 0, -1, 0, 0, 0
4943847, 0.3527527, -0.3192749, -0.025100708, 4943847, -0.031244993, -0.823164, -0.9208002, 0, 0, 0, 0, -1, 0, 0, 0
4943848, 0.3527527, -0.2545166, -0.025100708, 4943848, -0.068713844, -0.41895437, -1.6322498, 0, 0, 0, 0, -1, 0, 0, 0
4943848, 0.33442688, -0.17756653, -0.043426514, 4943848, -0.15833533, -0.16296244, -2.1813917, 0, 0, 0, -1, -1, 59341089119652, 0, 0
4943847, 0.27822876, -0.13357544, -0.055648804, 4943847, -0.41179103, 0.02734518, -2.5654182, 0, 0, 0, -1, -1, 0, 0, 0
7049561, 0.11817932, -0.15924072, -0.019012451, 7049561, -0.5436195, 0.019248009, -2.5451202, 0, 0, 0, -1, -1, 0, 0, 0
5035400, 0.015563965, -0.18121338, -0.0031280518, 5035400, -0.5355892, -0.06190729, -2.2142344, 0, 0, 0, -1, -1, 0, 0, 0
5035401, -0.07606506, -0.18733215, 0.010299683, 5035401, -0.4682614, -0.1928668, -1.714675, 0, 0, 0, -1, -1, 0, 0, 0
5035400, -0.19210815, -0.21054077, 0.018859863, 5035401, -0.4682614, -0.1928668, -1.714675, 0, 0, 0, -1, -1, 0, 0, 0
5035400, -0.19210815, -0.21054077, 0.018859863, 5035400, 0.009626418, -0.1235466, -0.46379185, 0, 0, 0, -1, -1, 0, 0, 0
4943848, -0.2336731, -0.23254395, 0.017623901, 4943848, 0.40330833, 0.078279495, 0.27144814, 0, 0, 0, -1, -1, 0, 0, 0
4943848, -0.24588013, -0.2545166, 0.004196167, 4943848, 0.6863617, 0.41847944, 0.8377962, 0, 0, 0, -1, -1, 0, 0, 0
5187989, -0.2336731, -0.11769104, -0.0385437, 4943848, 0.6863617, 0.41847944, 0.8377962, 0, 0, 0, -1, -1, 0, 0, 0
5187989, -0.2336731, -0.11769104, -0.0385437, 5187989, 0.8194214, 0.66701317, 1.4785328, 0, 0, 0, -1, -1, 0, 0, 0
4882813, -0.20922852, 0.039901733, -0.04710388, 5187989, 0.8194214, 0.66701317, 1.4785328, 0, 0, 0, -1, -1, 0, 0, 0
4974365, -0.16281128, 0.1950531, -0.036102295, 4730224, 0.7049438, 0.629231, 1.5015574, 0, 0, 0, -1, -1, 0, 0, 0
4913330, -0.1078186, 0.28300476, -0.036102295, 4882813, 0.5576805, 0.45594788, 1.3858471, 0, 0, 0, -1, -1, 0, 0, 0
4974365, -0.05039978, 0.30500793, -0.03488159, 4974365, 0.47667575, 0.15416193, 1.0888128, 0, 0, 0, -1, -1, 0, 0, 0
4974365, -0.05039978, 0.30500793, -0.03488159, 4974365, 0.01492691, -0.3484106, 0.7384615, 0, 0, 0, -1, -1, 0, 0, 0
4943848, -0.012542725, 0.29888916, -0.028778076, 4943848, -0.2900582, -0.4230361, 0.72684956, 0, 0, 0, -1, -1, 0, 0, 0
4913330, 0.06930542, 0.21826172, 0.010299683, 4943848, -0.2900582, -0.4230361, 0.72684956, 0, 0, 0, -1, -1, 0, 0, 0
5004883, 0.08030701, 0.17184448, 0.02986145, 4943848, -0.5526484, -0.48847008, 0.5544367, 0, 0, 0, -1, -1, 0, 0, 0
5004883, 0.08030701, 0.17184448, 0.02986145, 5004883, -0.66655517, -0.43173409, -0.0046339035, 0, 0, 0, -1, -1, 0, 0, 0
4974365, 0.06808472, 0.067993164, 0.0652771, 5004883, -0.66655517, -0.43173409, -0.0046339035, 0, 0, 0, -1, -1, 0, 0, 0
4974365, 0.06808472, 0.067993164, 0.0652771, 4974365, -0.695728, -0.18795872, -0.42250443, 0, 0, 0, -1, -1, 0, 0, 0
4913330, 0.048538208, 0.013031006, 0.07261658, 4913330, -0.54808635, -0.25947094, -0.6423044, 0, 0, 0, -1, -1, 0, 0, 0
4974365, 0.03753662, 0.10952759, 0.083602905, 4974365, -0.17504513, -0.29158735, -1.3544254, 0, 0, 0, -1, -1, 0, 0, 0
4974366, -0.06996155, 0.21582031, 0.04084778, 4974365, -0.17504513, -0.29158735, -1.3544254, 0, 0, 0, -1, -1, 0, 0, 0
4943847, -0.15791321, 0.06311035, 0.00541687, 4913330, -0.011687964, -0.18976498, -1.4314814, 1, 116, 1056, 0, 1, 0, 0, 161923646
4943848, -0.21043396, -0.3559265, 0.004196167, 4974366, -0.19639382, 0.053569794, -1.2744856, 0, 0, 0, 0, 1, 0, 0, 0
4943847, -0.2654419, -0.817749, 0.034744263, 4943847, -0.5927838, 0.3038559, -2.1648388, 0, 0, 0, 0, 1, 0, 0, 0
4943847, -0.2654419, -0.817749, 0.034744263, 4943847, -1.1036639, 0.33675432, -0.65068626, 0, 0, 0, 0, 1, 0, 0, 0
7049561, -0.33018494, -0.90937805, 0.067718506, 7049561, -0.41546917, 0.2217865, 0.24038887, 0, 0, 0, 0, 1, 0, 0, 0
5035400, -0.32162476, -0.9130249, 0.08972168, 5035400, -0.0899024, 0.26944685, 1.4355583, 0, 0, 0, 0, 1, 0, 0, 0
5004883, -0.26176453, -0.84828186, 0.079940796, 5004883, -0.15015501, 0.16491175, 1.9413538, 0, 0, 0, 0, 1, 0, 0, 0
5065918, -0.20066833, -0.7847595, 0.07749939, 5065918, 0.14580628, -0.04774475, 1.9055786, 0, 0, 0, 0, 1, 0, 0, 0
5035401, -0.13348389, -0.7200165, 0.060394287, 5035401, 0.58539164, -0.12293959, 1.8461885, 0, 0, 0, 0, 1, 0, 0, 0
4943847, -0.047958374, -0.6503601, 0.04084778, 4943847, 0.6383574, -0.17294455, 1.6467247, 0, 0, 0, 0, 1, 0, 0, 0
4943848, 0.03388977, -0.54896545, 0.004196167, 4943848, 0.44156092, -0.17081642, 1.1700201, 0, 0, 0, 0, 1, 0, 0, 0
4913330, 0.099853516, -0.4170227, -0.03488159, 4913330, 0.20498826, -0.16345692, 0.66512966, 0, 0, 0, 0, 1, 0, 0, 0
4974365, 0.14994812, -0.27651978, -0.06175232, 4974365, -0.0025766492, -0.1379466, 0.29592228, 0, 0, 0, -1, 1, 59341273423975, 0, -21347968
4943848, 0.17927551, -0.17633057, -0.07397461, 4943848, -0.20198555, -0.14462805, 0.029851913, 0, 0, 0, -1, 1, 0, 0, 0
4943848, 0.17192078, -0.12867737, -0.0703125, 4943848, -0.28885704, -0.11321211, -0.23356342, 0, 0, 0, -1, 1, 0, 0, 0
4943847, 0.14260864, -0.12013245, -0.064208984, 4943847, -0.28469104, -0.099811554, -0.51253605, 0, 0, 0, -1, 1, 0, 0, 0
4943848, 0.10107422, -0.13967896, -0.059310913, 4943848, -0.2068864, -0.06648111, -0.6679907, 0, 0, 0, -1, 1, 0, 0, 0
4913330, 0.050979614, -0.15434265, -0.056869507, 4913330, -0.05367002, 0.0021400452, -0.6856537, 0, 0, 0, -1, 1, 0, 0, 0
4943848, -0.023513794, -0.17388916, -0.067871094, 4943848, 0.16057388, 0.11307478, -0.58517456, 0, 0, 0, -1, 1, 0, 0, 0
4974365, -0.07972717, -0.16168213, -0.08253479, 4974365, 0.3271289, 0.18866062, -0.45806313, 0, 0, 0, -1, 1, 0, 0, 0
4913330, -0.1212616, -0.14456177, -0.100860596, 4913330, 0.44281095, 0.26600838, -0.33223724, 0, 0, 0, -1, 1, 0, 0, 0
4974365, -0.16401672, -0.095703125, -0.1191864, 4974365, 0.41731796, 0.27753162, -0.16685677, 0, 0, 0, -1, 1, 0, 0, 0
4943848, -0.19090271, -0.060272217, -0.13871765, 4943848, 0.34189308, 0.248353, 0.041970253, 0, 0, 0, -1, 1, 0, 0, 0
4943847, -0.2202301, -0.046829224, -0.14483643, 4943847, 0.18006317, 0.16929626, 0.3321247, 0, 0, 0, -1, 1, 0, 0, 0
4943848, -0.2202301, -0.055389404, -0.14605713, 4943848, -0.095873445, 0.10054731, 0.80652237, 0, 0, 0, -1, 1, 0, 0, 0
4943848, -0.18234253, -0.055389404, -0.11795044, 4943848, -0.35800326, -0.019320965, 1.1695547, 0, 0, 0, -1, 1, 0, 0, 0
4943847, -0.18234253, -0.08470154, -0.11795044, 4943847, -0.51647735, -0.138206, 1.3712692, 0, 0, 0, -1, 1, 0, 0, 0
4913330, -0.1395874, -0.09082031, -0.088638306, 4913330, -0.43683422, -0.23753405, 1.5377026, 0, 0, 0, -1, 1, 0, 0, 0
4974366, -0.10171509, -0.087142944, -0.049545288, 4974366, -0.28327906, -0.26995277, 1.6100836, 0, 0, 0, -1, 1, 0, 0, 0
4943847, -0.03451538, -0.06149292, -0.021453857, 4943847, -0.11232914, -0.23979568, 1.6460342, 0, 0, 0, -1, 1, 0, 0, 0
4943848, 0.039978027, -0.026062012, -0.008010864, 4943848, -0.008504733, -0.17126322, 1.4395666, 0, 0, 0, -1, 1, 0, 0, 0
4974365, 0.20613098, 0.06921387, -0.016571045, 4943848, -0.008504733, -0.17126322, 1.4395666, 0, 0, 0, -1, 1, 0, 0, 0
5065918, 0.21469116, 0.10708618, -0.011657715, 7049561, 0.056979343, -0.10979414, 0.5327215, 0, 0, 0, -1, 1, 0, 0, 0
5004883, 0.20368958, 0.10220337, -0.005569458, 4974365, -0.043030247, -0.07773113, 0.07108688, 0, 0, 0, -1, 1, 0, 0, 0
5004883, 0.20368958, 0.10220337, -0.005569458, 5004883, -0.5679039, -0.19352388, -0.9821005, 0, 0, 0, -1, 1, 0, 0, 0
4943847, 0.15115356, -0.010177612, 0.02986145, 5004883, -0.5679039, -0.19352388, -0.9821005, 0, 0, 0, -1, 1, 0, 0, 0
4943848, 0.119400024, -0.016296387, 0.0493927, 5065918, -0.61305714, -0.19562054, -1.3187456, 0, 0, 0, -1, 1, 0, 0, 0
4943848, 0.119400024, -0.016296387, 0.051834106, 4943847, -0.4798143, -0.14657784, -1.4530926, 0, 0, 0, -1, -1, 0, 156691615, 0
4943847, 0.16339111, 0.22802734, 0.051834106, 4943848, -0.18928263, -0.45006657, -1.4153376, 0, 0, 0, -1, -1, 0, 0, 0
4943848, 0.14138794, 0.34898376, 0.0640564, 4943848, 0.021162942, -0.16244411, -2.308505, 0, 0, 0, -1, -1, 0, 0, 0
4943848, 0.14138794, 0.34898376, 0.0640564, 4943848, 0.05224426, 0.038951397, -1.9952316, 0, 0, 0, -1, -1, 0, 0, 0
4943847, 0.055862427, 0.32089233, 0.07015991, 4943847, 0.14876893, 0.23350048, -1.932126, 1, 845, 1207, 0, -1, 0, 0, 42415260
4943848, -0.044296265, 0.26223755, 0.055511475, 4943848, -0.08631042, 0.40473557, -1.5895729, 0, 0, 0, 0, -1, 0, 0, 0
4943848, -0.14692688, 0.2133789, 0.04574585, 4943848, -0.18823758, 0.5456877, -1.0764132, 0, 0, 0, 0, -1, 0, 0, 0
4943848, -0.29719543, 0.17549133, 0.06283569, 4943848, -0.18823758, 0.5456877, -1.0764132, 0, 0, 0, 0, -1, 0, 0, 0
4943848, -0.33628845, 0.1632843, 0.07015991, 4943847, -0.27690524, 0.5311599, -0.61202717, 0, 0, 0, 0, -1, 0, 0, 0
4943847, -0.34605408, 0.15596008, 0.06161499, 4943848, 0.01310201, 0.51020336, 0.06292248, 0, 0, 0, 0, -1, 0, 0, 0
4943847, -0.34605408, 0.15596008, 0.06161499, 4943847, 0.20769636, 0.21837807, 0.8734474, 0, 0, 0, 0, -1, 0, 0, 0
4943848, -0.2727661, 0.18772888, 0.05307007, 4943847, 0.20769636, 0.21837807, 0.8734474, 0, 0, 0, 0, -1, 0, 0, 0
4913330, -0.21043396, 0.1950531, 0.0493927, 4943848, 0.2616791, 0.034989357, 1.1337156, 0, 0, 0, 0, -1, 0, 0, 0
4974365, -0.14813232, 0.18528748, 0.048187256, 4943848, 0.29362005, -0.1110363, 1.359107, 0, 0, 0, 0, -1, 0, 0, 0
4974365, -0.14813232, 0.18528748, 0.048187256, 4974365, 0.1660153, -0.36936235, 1.1073427, 0, 0, 0, 0, -1, 0, 0, 0
4943848, -0.096832275, 0.19137573, 0.04206848, 4943848, 0.20378035, -0.23577642, 1.0613346, 0, 0, 0, 0, -1, 0, 0, 0
4943847, -0.04185486, 0.16940308, 0.02986145, 4943847, -0.11240241, -0.069396496, 0.84467316, 0, 0, 0, 0, -1, 0, 0, 0
4913330, 0.013122559, 0.11808777, 0.024978638, 4913330, -0.18182671, 0.043215275, 0.50784206, 0, 0, 0, 0, -1, 0, 0, 0
4974366, 0.039978027, 0.04966736, 0.015182495, 4974366, -0.20798934, 0.035055637, 0.17911816, 0, 0, 0, 0, -1, 0, 0, 0
4943847, 0.05709839, -0.019958496, 0.004196167, 4943847, -0.20687386, 0.05339098, 0.021681786, 0, 0, 0, 0, -1, 0, 0, 0
4943848, 0.05709839, -0.08470154, 0.006652832, 4943848, -0.5206097, 0.11295605, -0.12777615, 0, 0, 0, 0, -1, 0, 0, 0
7080078, 0.0460968, -0.09814453, 0.009094238, 7080078, -0.55782485, 0.074717045, -0.15140247, 0, 0, 0, 0, -1, 0, 0, 0
5004883, 0.0289917, -0.06515503, 0.007858276, 5004883, -0.38984644, -0.039970398, -0.19849491, 0, 0, 0, 0, -1, 0, 0, 0
5035400, 0.019210815, -0.032180786, -0.0104522705, 5035400, -0.25604984, -0.14646101, -0.20809174, 0, 0, 0, 0, -1, 0, 0, 0
5035401, 0.0289917, -0.048065186, -0.060546875, 5035401, -0.22552082, -0.19089127, -0.2911129, 0, 0, 0, -1, -1, 59341522672152, 0, 0
5035400, 0.03388977, -0.103027344, -0.09963989, 5035400, -0.289259, -0.26584673, -0.47181416, 0, 0, 0, -1, -1, 0, 0, 0
4943848, 0.019210815, -0.18365479, -0.13017273, 4943848, -0.41114262, -0.28770685, -0.6470947, 0, 0, 0, -1, -1, 0, 0, 0
4943847, 0.015563965, -0.2679596, -0.14483643, 4943847, -0.5437648, -0.2636218, -0.9017153, 0, 0, 0, -1, -1, 0, 0, 0
4943848, -0.03086853, -0.3046112, -0.12773132, 4943848, -0.9700546, -0.053691864, -1.1672964, 0, 0, 0, -1, -1, 0, 0, 0
4943848, -0.09927368, -0.3070526, -0.104522705, 4943848, -0.56122714, -0.103354454, -1.0442266, 0, 0, 0, -1, -1, 0, 0, 0
4943847, -0.15791321, -0.322937, -0.100860596, 4943847, 0.10082474, -0.18796444, -1.123826, 0, 0, 0, -1, -1, 0, 0, 0
4943848, -0.1860199, -0.52085876, -0.10696411, 4943848, 0.46341226, 0.104492664, -2.194274, 0, 0, 0, -1, -1, 0, 0, 0
4943848, -0.20310974, -0.79696655, -0.1326294, 4943848, -0.16011739, 0.5862932, -1.0888109, 0, 0, 0, -1, -1, 0, 0, 0
4943847, -0.2361145, -0.77497864, -0.13383484, 4943847, -0.44411546, 0.6771407, -0.55892277, 0, 0, 0, -1, -1, 0, 0, 0
4943848, -0.2544403, -0.74198914, -0.064208984, 4943848, -0.25793362, 0.35242605, -0.033519745, 1, 140, 989, 0, -1, 0, 0, 82892135
4943848, -0.26298523, -0.6503601, 5.493164E-4, 4943848, 0.06691012, 0.14761639, 0.50591564, 0, 0, 0, 0, -1, 0, 0, 0
4943847, -0.26176453, -0.55506897, 0.046951294, 4943847, -0.13753778, -0.004187107, 0.99262714, 0, 0, 0, 0, -1, 0, 0, 0
4974366, -0.22267151, -0.51231384, 0.05795288, 4974366, 0.68885624, -0.4046569, 1.49646, 0, 0, 0, 0, -1, 0, 0, 0
4943847, -0.14813232, -0.49276733, 0.03718567, 4943847, 0.748236, -0.5936146, 1.9729347, 0, 0, 0, 0, -1, 0, 0, 0
4943848, -0.04185486, -0.45855713, 0.018859863, 4943848, -0.040371962, -0.5542674, 2.0619326, 0, 0, 0, 0, -1, 0, 0, 0
4943848, -0.04185486, -0.45855713, 0.012741089, 4943848, 0.020994535, -0.61564827, 1.8235779, 0, 0, 0, 0, -1, 0, 0, 0
4913330, 0.05709839, -0.44755554, 0.012741089, 4913330, -0.01842215, -0.5053401, 1.4296379, 0, 0, 0, 0, -1, 0, 0, 0
4974365, 0.13282776, -0.43655396, -0.0031280518, 4974365, -0.13628516, -0.32069588, 0.91092205, 0, 0, 0, 0, -1, 0, 0, 0
4943847, 0.17680359, -0.42311096, -0.022659302, 4943847, -0.095317066, -0.09720421, 0.42484283, 0, 0, 0, 0, -1, 0, 0, 0
4943848, 0.17803955, -0.38645935, -0.02633667, 4943848, -0.28602967, 0.1546526, 0.013350487, 0, 0, 0, 0, -1, 0, 0, 0
4943848, 0.14016724, -0.3192749, -0.015335083, 4943848, -0.16936797, 0.17289448, -0.20862389, 0, 0, 0, 0, -1, 0, 0, 0
4943847, 0.10961914, -0.19589233, -0.008010864, 4943847, 0.32006854, -0.06978941, -0.18352318, 0, 0, 0, 0, -1, 0, 0, 0
4913331, 0.091293335, -0.08103943, -0.03366089, 4913331, 0.38878047, -0.3786378, -0.33821487, 0, 0, 0, 0, -1, 0, 0, 0
7080078, -0.021072388, 0.06311035, -6.866455E-4, 7080078, -0.012276165, -0.28849316, -0.28382587, 0, 0, 0, 0, -1, 0, 0, 0
5035400, -0.1212616, 0.17184448, 0.05795288, 7080078, -0.012276165, -0.28849316, -0.28382587, 0, 0, 0, 0, -1, 0, 0, 0
5035401, -0.14813232, 0.2769165, 0.059173584, 5035400, 0.11810026, -0.018949509, -0.3868637, 0, 0, 0, 0, -1, 0, 0, 0
5004883, -0.07728577, 0.58966064, 0.038406372, 5035400, 0.27283847, 0.114981174, -0.48042965, 0, 0, 0, 0, -1, 0, 0, 0
4974365, -0.07728577, 0.5053711, 0.015182495, 5035401, 0.46248877, 0.081009865, -0.031822205, 0, 0, 0, 0, -1, 0, 0, 0
4974365, -0.07728577, 0.5053711, 0.015182495, 4974365, 0.69015455, 0.30136156, -0.9458151, 0, 0, 0, 0, -1, 0, 0, 0
4943847, 0.03388977, 0.73506165, 0.0115356445, 4974365, 0.69015455, 0.30136156, -0.9458151, 0, 0, 0, 0, -1, 0, 0, 0
4943847, 0.03388977, 0.73506165, 0.0115356445, 4943847, -0.08365795, 0.24961519, -1.0074043, 1, 806, 1407, 0, 1, 0, 0, 0
4943848, -0.03451538, 0.35876465, -0.008010864, 4943847, -0.08365795, 0.24961519, -1.0074043, 0, 0, 0, 0, 1, 0, 0, 0
4943847, -0.07606506, 0.1632843, 0.0017547607, 4943848, -0.35854125, 0.3465767, -0.80862236, 0, 0, 0, -1, 1, 59341708929756, 0, -25450573
4913330, -0.093170166, 0.032562256, 0.032302856, 4943848, -0.7201379, 0.47795773, -0.25609398, 0, 0, 0, -1, 1, 0, 0, 0
4943848, -0.088272095, -0.0382843, 0.06651306, 4943847, -0.89298826, 0.54564095, 0.12881184, 0, 0, 0, -1, 1, 0, 0, 0
4974365, -0.08216858, -0.0541687, 0.08848572, 4913330, -0.53681356, 0.4700575, 0.3748865, 0, 0, 0, -1, 1, 0, 0, 0
4943848, -0.088272095, -0.027297974, 0.092163086, 4943848, -0.19854935, 0.3619094, 0.5175133, 0, 0, 0, -1, 1, 0, 0, 0
4943847, -0.09439087, 0.031341553, 0.08482361, 4974365, 0.15892594, 0.2065854, 0.47869205, 0, 0, 0, -1, 1, 0, 0, 0
4913331, -0.093170166, 0.08998108, 0.07627869, 4943848, 0.2785661, 0.091451645, 0.5038805, 0, 0, 0, -1, 1, 0, 0, 0
4974365, -0.096832275, 0.1278534, 0.067718506, 4943847, 0.27006772, 0.0057554245, 0.5369787, 0, 0, 0, -1, 1, 0, 0, 0
4913330, -0.09439087, 0.15596008, 0.055511475, 4913331, 0.09310495, -0.0026583672, 0.5188198, 0, 0, 0, -1, 1, 0, 0, 0
4974365, -0.08705139, 0.1608429, 0.048187256, 4974365, -0.09938276, -0.03820753, 0.48582363, 0, 0, 0, -1, 1, 0, 0, 0
4943848, -0.08338928, 0.164505, 0.038406372, 4913330, -0.20498344, 0.035791397, 0.377491, 0, 0, 0, -1, 1, 0, 0, 0
4913330, -0.08705139, 0.1632843, 0.023742676, 4974365, -0.27456307, 0.11531162, 0.30512047, 0, 0, 0, -1, 1, 0, 0, 0
4974365, -0.07484436, 0.1791687, 0.017623901, 4943848, -0.2839102, 0.222085, 0.26711273, 0, 0, 0, -1, 1, 0, 0, 0
4974365, -0.07484436, 0.1791687, 0.017623901, 4974365, -0.15252359, -0.12372923, 0.21395779, 0, 0, 0, -1, 1, 0, 0, 0
4943847, -0.03819275, 0.2427063, 0.00541687, 4974365, -0.15252359, -0.12372923, 0.21395779, 0, 0, 0, -1, 1, 0, 0, 0
4943847, -0.03819275, 0.2427063, 0.00541687, 4943847, -0.28962696, -0.32747126, 0.1549902, 0, 0, 0, -1, -1, 0, 80304115, 0
4943848, -0.025970459, 0.21949768, -0.008010864, 4943848, -0.30441928, -0.34636164, 0.13432789, 0, 0, 0, -1, -1, 0, 0, 0
4943848, -0.006439209, 0.16572571, -0.022659302, 4943848, -0.29764426, -0.27626753, 0.051376343, 0, 0, 0, -1, -1, 0, 0, 0
7049560, 0.0082092285, 0.08143616, -0.044662476, 7049560, -0.28817028, -0.21551466, -0.0036363602, 0, 0, 0, -1, -1, 0, 0, 0
5035401, 0.027770996, -0.008972168, -0.064208984, 5035401, -0.30042827, -0.1634078, -0.12071133, 0, 0, 0, -1, -1, 0, 0, 0
5035400, 0.043655396, -0.099365234, -0.076416016, 5035400, -0.26744547, -0.12495327, -0.06569958, 0, 0, 0, -1, -1, 0, 0, 0
5035400, 0.052200317, -0.16777039, -0.067871094, 5035400, -0.19623235, -0.04558468, -0.0065460205, 0, 0, 0, -1, -1, 0, 0, 0
5035401, 0.05342102, -0.2728424, -0.07397461, 5035401, 0.006510958, -0.08615255, -0.50897884, 0, 0, 0, -1, -1, 0, 0, 0
4943847, 0.10229492, -0.76031494, -0.0703125, 4943847, 0.1874165, 0.10274029, -2.6092167, 0, 0, 0, -1, -1, 0, 0, 0
4943848, 0.083969116, -0.9533539, -0.100860596, 4943848, -0.33523843, 0.4644513, -1.1194754, 0, 0, 0, -1, -1, 0, 0, 0
4943848, 0.0778656, -0.9521179, -0.0849762, 4943848, 0.13161545, 0.40924072, -0.36662006, 1, 153, 997, 0, -1, 0, 0, 79447656
5310058, 0.09007263, -0.8922577, -0.05810547, 5310058, 0.031738717, 0.29675627, 0.65263844, 0, 0, 0, 0, -1, 0, 0, 0
4577637, 0.13406372, -0.7114563, -0.040985107, 4577637, 0.12410988, -0.13727379, 0.15316772, 0, 0, 0, 0, -1, 0, 0, 0
4943848, 0.12918091, -0.60150146, -0.0018920898, 4943848, 0.133039, -0.4274745, 0.030731201, 0, 0, 0, 0, -1, 0, 0, 0
4943847, 0.10595703, -0.55018616, 0.028625488, 4943847, 0.036174454, -0.51187944, 0.020669937, 0, 0, 0, 0, -1, 0, 0, 0
4943848, 0.0949707, -0.4830017, 0.056732178, 4943848, 0.15137914, -0.49860907, -0.030834198, 0, 0, 0, 0, -1, 0, 0, 0
4913330, 0.08641052, -0.34248352, 0.071395874, 4913330, 0.16536088, -0.29353952, -0.16417885, 0, 0, 0, 0, -1, 0, 0, 0
4943848, 0.06564331, -0.14456177, 0.07749939, 4943848, 0.012375519, -0.072319984, -0.38782597, 0, 0, 0, 0, -1, 0, 0, 0
4943847, 0.038772583, 0.07409668, 0.07261658, 4943847, 0.624698, -0.1041975, -0.33698177, 0, 0, 0, 0, -1, 0, 0, 0
4943848, -0.007659912, 0.07409668, 0.05307007, 4943848, 0.80664706, -0.28476858, -0.3517189, 0, 0, 0, 0, -1, 0, 0, 0
4943848, -0.007659912, 0.2427063, 0.05307007, 4943848, 0.6365876, -0.36808825, -0.2930336, 0, 0, 0, 0, -1, 0, 0, 0
4943847, -0.05407715, 0.36730957, 0.043289185, 4943847, 0.27475715, -0.3302722, -0.11905575, 0, 0, 0, 0, -1, 0, 0, 0
4943848, -0.056518555, 0.49925232, 0.050628662, 4943848, 0.2952822, -0.25071287, 1.1243801, 0, 0, 0, 0, -1, 0, 0, 0
4943848, 0.06564331, 0.8156891, 0.044509888, 4943848, 0.5016121, -0.09788895, 0.10007572, 0, 0, 0, 0, -1, 0, 0, 0
4943847, 0.123062134, 1.0062866, 0.031066895, 4943847, -0.14751634, -0.19484615, -0.5664911, 0, 0, 0, 0, -1, 0, 0, 0
4943847, 0.021652222, 0.9879608, 0.043289185, 4943847, -0.14751634, -0.19484615, -0.5664911, 1, 824, 1441, 0, 1, 0, 0, 0
4943847, 0.021652222, 0.9879608, 0.043289185, 4943847, 0.40010235, 0.16987467, -0.776598, 0, 0, 0, 0, 1, 0, 0, 0
4943848, -0.068725586, 0.8889923, 0.020065308, 4943848, 0.34045997, 0.5406141, -0.6923313, 0, 0, 0, 0, 1, 0, 0, 0
4943848, -0.124923706, 0.72650146, 0.0017547607, 4943848, 0.008644737, 0.629653, -0.6531906, 0, 0, 0, 0, 1, 0, 0, 0
4943847, -0.1725769, 0.5053711, 0.007858276, 4943847, -0.099562585, 0.4816742, -0.4607334, 0, 0, 0, 0, 1, 0, 0, 0
7019043, -0.21290588, 0.2537079, 0.03718567, 7019043, -0.10864158, 0.16005373, -0.07319641, 0, 0, 0, -1, 1, 59341917988246, 0, -28877604
5065918, -0.22879028, -0.08103943, 0.05795288, 7019043, -0.10864158, 0.16005373, -0.07319641, 0, 0, 0, -1, 1, 0, 0, 0
5035400, -0.23123169, -0.111587524, 0.07749939, 5035401, 0.008159205, 0.03381014, 0.08595657, 0, 0, 0, -1, 1, 0, 0, 0
5035400, -0.22631836, -0.09082031, 0.099487305, 5065918, 0.12557516, -0.048565865, 0.20028782, 0, 0, 0, -1, 1, 0, 0, 0
5035400, -0.22631836, -0.09082031, 0.099487305, 5035400, 0.2510172, -0.1714983, 0.2915573, 0, 0, 0, -1, 1, 0, 0, 0
4943848, -0.22511292, -0.06637573, 0.10926819, 4943848, 0.15753214, -0.15964413, 0.35828304, 0, 0, 0, -1, 1, 0, 0, 0
4943848, -0.2568817, -0.028503418, 0.095825195, 4943848, 0.038951114, -0.22976398, 0.5593939, 0, 0, 0, -1, 1, 0, 0, 0
4943848, -0.2654419, 0.044784546, 0.07749939, 4943848, 0.038951114, -0.22976398, 0.5593939, 0, 0, 0, -1, 1, 0, 0, 0
4943848, -0.2654419, 0.044784546, 0.07749939, 4943848, 0.083296135, -0.72451496, 0.9646244, 0, 0, 0, -1, 1, 0, 0, 0
4943848, -0.21411133, 0.096084595, 0.060394287, 4943848, -0.105135724, -0.44239807, 1.1358128, 0, 0, 0, -1, 1, 0, 0, 0
4943847, -0.14202881, 0.15351868, 0.038406372, 4943847, -0.19924663, -0.10467148, 1.1207094, 0, 0, 0, -1, 1, 0, 0, 0
4943848, 0.036331177, 0.27568054, 0.027420044, 4943847, -0.19924663, -0.10467148, 1.1207094, 0, 0, 0, -1, 1, 0, 0, 0
4913330, 0.08274841, 0.28056335, 0.031066895, 4943848, -0.20180282, 0.1419878, 0.85511017, 0, 0, 0, -1, -1, 0, 91101563, 0
4943847, 0.08885193, 0.2451477, 0.031066895, 4943848, -0.2001611, 0.19556761, 0.31475067, 0, 0, 0, -1, -1, 0, 0, 0
4943847, 0.08885193, 0.2451477, 0.031066895, 4943847, -0.26729116, 0.035299778, 0.0076084137, 0, 0, 0, -1, -1, 0, 0, 0
4974365, 0.052200317, 0.09976196, -0.0018920898, 4943847, -0.26729116, 0.035299778, 0.0076084137, 0, 0, 0, -1, -1, 0, 0, 0
4974365, 0.052200317, 0.09976196, -0.0018920898, 4974365, 0.13897239, -0.08045673, 0.45033646, 0, 0, 0, -1, -1, 0, 0, 0
4913330, 0.042419434, 0.053329468, -0.015335083, 4913330, 0.38030022, 0.00432539, 0.48696995, 0, 0, 0, -1, -1, 0, 0, 0
4943848, 0.036331177, 0.027664185, -0.032440186, 4943848, 0.39566994, 0.04220724, 0.39671516, 0, 0, 0, -1, -1, 0, 0, 0
4974365, 0.0448761, 0.016693115, -0.049545288, 4974365, 0.27850342, 0.1383028, 0.17517662, 0, 0, 0, -1, -1, 0, 0, 0
4943848, 0.05342102, 0.015457153, -0.07519531, 4943848, 0.15976287, 0.17248964, -0.12153435, 0, 0, 0, -1, -1, 0, 0, 0
4943847, 0.048538208, -0.0138549805, -0.08375549, 4943847, 0.019080713, 0.11514616, -0.46487427, 0, 0, 0, -1, -1, 0, 0, 0
4943848, 0.059539795, -0.07371521, -0.088638306, 4943848, -0.07525121, 0.042492867, -0.60886097, 0, 0, 0, -1, -1, 0, 0, 0
4943847, 0.18415833, -0.76519775, -0.04222107, 4943848, -0.07525121, 0.042492867, -0.60886097, 0, 0, 0, -1, -1, 0, 0, 0
4943847, 0.18415833, -0.76519775, -0.04222107, 4943847, -0.48862475, 0.0215559, -1.8535147, 0, 0, 0, -1, -1, 0, 0, 0
4943848, 0.20857239, -0.88005066, -0.051986694, 4943848, -0.2778885, -0.28013897, -0.86641693, 0, 0, 0, -1, -1, 0, 0, 0
4943848, 0.24645996, -0.87028503, -0.0018920898, 4943848, -0.27040175, -0.35733223, -0.37115097, 1, 194, 1076, 0, -1, 0, 0, 126451823
7049560, 0.2635498, -0.7859802, 0.07872009, 7049560, -0.53427887, -0.2931018, 0.28794098, 0, 0, 0, 0, -1, 0, 0, 0
5035401, 0.25134277, -0.6576843, 0.15446472, 5035401, -0.54146063, -0.15652943, 0.041420937, 0, 0, 0, 0, -1, 0, 0, 0
5035400, 0.21469116, -0.56851196, 0.16789246, 5035400, 0.11056775, 0.018967628, -0.22624397, 0, 0, 0, 0, -1, 0, 0, 0
5035400, 0.16339111, -0.51597595, 0.13613892, 5035400, 0.42810738, 0.16072226, -0.10611725, 0, 0, 0, 0, -1, 0, 0, 0
5035401, 0.13406372, -0.45243835, 0.09460449, 5035401, 0.37155637, 0.20828485, 0.10952568, 0, 0, 0, 0, -1, 0, 0, 0
4943848, 0.110839844, -0.34248352, 0.0493927, 4943848, 0.105996475, 0.1659441, 0.18039227, 0, 0, 0, 0, -1, 0, 0, 0
4943847, 0.08885193, -0.20077515, 0.034744263, 4943847, -0.085804224, 0.07071161, 0.23680592, 0, 0, 0, 0, -1, 0, 0, 0
4943848, 0.060760498, -0.059051514, 0.032302856, 4943848, -0.2437223, -0.07345247, 0.1844492, 0, 0, 0, 0, -1, 0, 0, 0
4943847, 0.063201904, 0.06311035, 0.02130127, 4943847, -0.2743435, -0.24542046, 0.14912224, 0, 0, 0, 0, -1, 0, 0, 0
4943848, 0.047317505, 0.13519287, 0.015182495, 4943848, -0.17345, -0.34882402, 0.11483383, 0, 0, 0, 0, -1, 0, 0, 0
4943848, 0.03388977, 0.14984131, 0.009094238, 4943848, -0.07703709, -0.37340212, 0.14880753, 0, 0, 0, 0, -1, 0, 0, 0
4913330, 0.022888184, 0.13395691, -0.0104522705, 4913330, -0.05332111, -0.33150768, 0.07959366, 0, 0, 0, 0, -1, 0, 0, 0
4943848, -3.2043457E-4, 0.1290741, -0.027542114, 4943848, -0.060965985, -0.16972637, -0.031591415, 0, 0, 0, 0, -1, 0, 0, 0
4943847, -0.03819275, 0.13885498, -0.039779663, 4943847, -0.070966095, -0.08958769, -0.051740646, 0, 0, 0, 0, -1, 0, 0, 0
4943848, -0.08338928, 0.13885498, -0.037338257, 4943848, -0.0502049, -0.032477856, -0.122618675, 0, 0, 0, 0, -1, 0, 0, 0
4943848, -0.08338928, 0.1816101, -0.037338257, 4943848, 0.018361695, -0.01732397, -0.2682209, 0, 0, 0, 0, -1, 0, 0, 0
4974365, -0.11882019, 0.26223755, -0.021453857, 4974365, 0.11035529, -0.018537521, -0.33339024, 0, 0, 0, 0, -1, 0, 0, 0
4943847, -0.16281128, 0.34776306, -0.009216309, 4943847, 0.17004558, 0.030050755, -0.3795452, 0, 0, 0, 0, -1, 0, 0, 0
4943848, -0.18722534, 0.43571472, -0.004333496, 4943848, 0.18453465, -0.07483959, -0.42181873, 0, 0, 0, 0, -1, 0, 0, 0
4913330, -0.20310974, 0.5102539, -0.004333496, 4913330, 0.29325032, -0.098630905, -0.4549551, 0, 0, 0, 0, -1, 0, 0, 0
4974365, -0.20678711, 0.5786743, -0.0031280518, 4974365, 0.3825438, -0.06049776, -0.56816673, 0, 0, 0, 0, -1, 0, 0, 0
4943848, -0.21043396, 0.6495209, 0.0017547607, 4943848, 0.3801356, 0.047367573, -0.6103935, 0, 0, 0, 0, -1, 0, 0, 0
4943848, -0.22143555, 0.68252563, 0.012741089, 4943848, 0.32245114, 0.15507078, -0.64389896, 0, 0, 0, 0, -1, 0, 0, 0
4943847, -0.24099731, 0.6812897, 0.031066895, 4943847, 0.06939484, 0.15902805, -0.59048367, 0, 0, 0, 0, -1, 0, 0, 0
4943848, -0.26908875, 0.66908264, 0.055511475, 4943848, -0.32908547, 0.082853794, -0.65593815, 0, 0, 0, 0, -1, 0, 0, 0
4943848, -0.29109192, 0.65197754, 0.099487305, 4943848, -1.0592016, 0.033099174, -0.81223965, 0, 0, 0, 0, -1, 0, 0, 0
4943847, -0.31918335, 0.5970001, 0.19113159, 4943847, -1.4249189, 0.005182743, -0.6335249, 0, 0, 0, 0, -1, 0, 0, 0
7019043, -0.35217285, 0.5322571, 0.28764343, 7019043, -1.2319953, -0.07158136, -0.012848854, 0, 0, 0, 0, -1, 0, 0, 0
5065918, -0.36315918, 0.47972107, 0.36827087, 5065918, -0.8356746, -0.031550646, 0.4667673, 0, 0, 0, 0, -1, 0, 0, 0
5004883, -0.33506775, 0.42106628, 0.4220276, 5004883, -0.2710296, -0.024880886, 0.9194441, 0, 0, 0, 0, -1, 0, 0, 0
5065918, -0.26664734, 0.35632324, 0.4403534, 5065918, 0.2139548, -0.057029724, 1.0810909, 0, 0, 0, 0, -1, 0, 0, 0
4913330, -0.11882019, 0.32455444, 0.34750366, 5065918, 0.2139548, -0.057029724, 1.0810909, 0, 0, 0, 0, -1, 0, 0, 0
4974366, -0.03819275, 0.39297485, 0.28520203, 5035400, 0.4920037, -0.08676553, 1.1625748, 0, 0, 0, -1, -1, 59342213186683, 0, 0
4974366, -0.03819275, 0.39297485, 0.28520203, 4974366, 0.41309148, 0.12420583, 1.5764942, 0, 0, 0, -1, -1, 0, 0, 0
4943847, 0.0619812, 0.46748352, 0.23754883, 4943847, 0.6912259, 0.07623768, 1.5668497, 0, 0, 0, -1, -1, 0, 0, 0
4974366, 0.14994812, 0.49925232, 0.2118988, 4974366, 0.9174378, 0.051428795, 1.4174147, 0, 0, 0, -1, -1, 0, 0, 0
4913330, 0.21224976, 0.5285797, 0.18989563, 4913330, 1.2313106, -0.11212969, 1.0101385, 0, 0, 0, -1, -1, 0, 0, 0
4943847, 0.25746155, 0.6116638, 0.16300964, 4943847, 0.99523985, -0.4436593, -1.8117886, 0, 0, 0, -1, -1, 0, 0, 0
4913330, 0.28433228, 1.1027832, 0.1312561, 4913330, 0.7586546, -0.12040281, -3.1379843, 0, 0, 0, -1, -1, 0, 0, 0
4943847, 0.083969116, 2.014206, 0.14103699, 4913330, 0.7586546, -0.12040281, -3.1379843, 0, 0, 0, -1, -1, 0, 0, 0
4943847, 0.083969116, 2.014206, 0.14103699, 4943847, 0.17183834, 0.54514194, -3.4123049, 1, 989, 885, 0, -1, 0, 0, 73273646
4943848, -0.096832275, 1.9836578, 0.10437012, 4943848, 0.28671926, 0.8260236, -3.6019974, 0, 0, 0, 0, -1, 0, 0, 0
4943847, -0.47068787, 1.4900818, -0.019012451, 4943848, 0.28671926, 0.8260236, -3.6019974, 0, 0, 0, 0, -1, 0, 0, 0
4943847, -0.47068787, 1.4900818, -0.019012451, 4943847, -0.22084737, 0.785671, -1.939496, 0, 0, 0, 0, -1, 0, 0, 0
4913330, -0.59407043, 1.160202, -0.076416016, 4913330, -0.6220477, 0.7240753, -0.49983978, 0, 0, 0, 0, -1, 0, 0, 0
4974365, -0.64660645, 0.5188141, -0.124069214, 4913330, -0.6220477, 0.7240753, -0.49983978, 0, 0, 0, 0, -1, 0, 0, 0
4974365, -0.64660645, 0.5188141, -0.124069214, 4974365, -1.2094586, 0.3160131, 2.0071402, 0, 0, 0, 0, -1, 0, 0, 0
4943848, -0.46333313, 0.09486389, -0.0874176, 4974365, -1.2094586, 0.3160131, 2.0071402, 0, 0, 0, 0, -1, 0, 0, 0
4943847, -0.30818176, -0.0028533936, -0.06665039, 4943848, -1.3885963, 0.09915972, 2.9683628, 0, 0, 0, 0, -1, 0, 0, 0
4943847, -0.30818176, -0.0028533936, -0.06665039, 4943847, -1.3400109, -0.40207386, 3.66045, 0, 0, 0, 0, -1, 0, 0, 0
4943848, 0.026550293, -0.13357544, 0.007858276, 4943847, -1.3400109, -0.40207386, 3.66045, 0, 0, 0, 0, -1, 0, 0, 0
4943848, 0.026550293, -0.13357544, 0.007858276, 4943848, -1.0919352, -0.5652425, 3.0623484, 0, 0, 0, 0, -1, 0, 0, 0
4943848, 0.26234436, -0.20809937, 0.028625488, 4943848, -1.0919352, -0.5652425, 3.0623484, 0, 0, 0, 0, -1, 0, 0, 0
4943848, 0.26234436, -0.20809937, 0.028625488, 4943848, -0.709565, -0.3334198, 1.7298803, 0, 0, 0, 0, -1, 0, 0, 0
7019043, 0.3087616, -0.39135742, 0.07749939, 7019043, -1.0286708, -0.30153775, 0.55270576, 0, 0, 0, 0, -1, 0, 0, 0
5096435, 0.3258667, -0.45976257, 0.13613892, 5096435, -0.833032, -0.3539443, 0.474288, 0, 0, 0, 0, -1, 0, 0, 0
5004883, 0.3393097, -0.50009155, 0.17279053, 5004883, -0.7169432, -0.51778865, 0.34615898, 0, 0, 0, 0, -1, 0, 0, 0
5035401, 0.3478546, -0.51841736, 0.21066284, 5035401, -0.37850642, -0.5982909, 0.32618427, 0, 0, 0, 0, -1, 0, 0, 0
5004882, 0.3612976, -0.5037689, 0.22410583, 5004882, 0.33920473, -0.83708763, 0.44082546, 0, 0, 0, 0, -1, 0, 0, 0
4974366, 0.38452148, -0.39013672, 0.22654724, 4974366, 0.5860422, -0.7635882, 0.3181429, 0, 0, 0, 0, -1, 0, 0, 0
4943847, 0.40040588, -0.16900635, 0.19966125, 4943847, 0.27205664, -0.40429258, -0.021894455, 0, 0, 0, 0, -1, 0, 0, 0
4943848, 0.4236145, 0.07165527, 0.1618042, 4943848, 0.05333948, -0.094084024, -0.29048443, 0, 0, 0, 0, -1, 0, 0, 0
4943848, 0.4505005, 0.20361328, 0.1312561, 4943848, -0.07375765, 0.17215633, -0.24781132, 0, 0, 0, -1, -1, 59342362666319, 0, 0
4943847, 0.4737091, 0.18649292, 0.09094238, 4943847, -0.18003517, 0.28862548, -0.3963375, 0, 0, 0, -1, -1, 0, 0, 0
4913330, 0.4688263, 0.03501892, 0.055511475, 4913330, -0.29155576, 0.370049, -0.5742779, 0, 0, 0, -1, -1, 0, 0, 0
4974366, 0.47979736, -0.42434692, 0.04574585, 4974366, -0.32552636, 0.61270285, -1.6643133, 0, 0, 0, -1, -1, 0, 0, 0
4913330, 0.47979736, -0.42434692, 0.004196167, 4913330, -0.028532743, 0.523273, -4.2134094, 0, 0, 0, -1, -1, 0, 0, 0
4974365, 0.49447632, -1.3186493, 0.004196167, 4974365, -0.27141994, 0.6117196, -2.7792788, 0, 0, 0, -1, -1, 0, 0, 0
4913330, 0.43582153, -1.6656342, -0.06175232, 4913330, 0.1125111, 0.71512127, -1.7985048, 0, 0, 0, -1, -1, 0, 0, 0
4974365, 0.39916992, -1.68396, -0.06298828, 4974365, -0.07278496, 0.77088547, -0.26895523, 1, 91, 944, 0, -1, 0, 0, 62073541
4943848, 0.39794922, -1.4200592, 0.009094238, 4943848, -0.6818526, 0.39958858, 0.6627054, 0, 0, 0, 0, -1, 0, 0, 0
4913330, 0.36863708, -0.9985657, 0.0970459, 4913330, -0.115965515, -0.20843029, 0.31668472, 0, 0, 0, 0, -1, 0, 0, 0
4943848, 0.3417511, -0.6479187, 0.1459198, 4943848, 0.6683159, -0.41133738, 0.18469238, 0, 0, 0, 0, -1, 0, 0, 0
4974365, 0.29411316, -0.45732117, 0.15080261, 4974365, 0.9433521, -0.47801304, 0.42291355, 0, 0, 0, 0, -1, 0, 0, 0
4943847, 0.258667, -0.3376007, 0.11659241, 4943847, 0.71990585, -0.37684584, 0.5324974, 0, 0, 0, 0, -1, 0, 0, 0
4943848, 0.21836853, -0.21910095, 0.099487305, 4943848, 0.26176265, -0.1619997, 0.77713585, 0, 0, 0, 0, -1, 0, 0, 0
4943848, 0.19392395, -0.08592224, 0.10682678, 4943848, 0.024863362, 0.011806011, 0.9278059, 0, 0, 0, 0, -1, 0, 0, 0
4943847, 0.19760132, 0.05455017, 0.11659241, 4943847, 0.112258226, 0.10518551, 1.1199007, 0, 0, 0, 0, -1, 0, 0, 0
4913331, 0.20248413, 0.16940308, 0.13735962, 4913331, 0.26913515, 0.08749199, 1.2898626, 0, 0, 0, 0, -1, 0, 0, 0
4943847, 0.2427826, 0.2610321, 0.11659241, 4943847, 0.46780393, -0.012189865, 1.2407026, 0, 0, 0, 0, -1, 0, 0, 0
4974365, 0.28555298, 0.36120605, 0.08848572, 4974365, 0.5465456, -0.18991041, 1.1649265, 0, 0, 0, 0, -1, 0, 0, 0
5004882, 0.3747406, 0.5371399, 0.046951294, 4974365, 0.5465456, -0.18991041, 1.1649265, 0, 0, 0, 0, -1, 0, 0, 0
5035401, 0.39060974, 0.6275482, 0.035949707, 7080079, 0.2825611, -0.46700144, 0.5010233, 0, 0, 0, 0, -1, 0, 0, 0
5035401, 0.39060974, 0.6275482, 0.035949707, 5035401, -0.08006039, -0.46523857, -0.24823093, 0, 0, 0, 0, -1, 0, 0, 0
5035400, 0.39060974, 0.7252655, 0.035949707, 5035400, -0.2634804, -0.43605947, -0.49670315, 0, 0, 0, 0, -1, 0, 0, 0
5035401, 0.36863708, 0.8193512, 0.04084778, 5035401, -0.9502368, -0.43831348, -0.60473156, 0, 0, 0, 0, -1, 0, 0, 0
4943847, 0.338089, 0.9085388, 0.06895447, 4943847, -1.4788157, -0.011209011, -0.8769884, 0, 0, 0, 0, -1, 0, 0, 0
4943848, 0.30265808, 0.9720764, 0.11048889, 4943848, -1.5732807, 0.21844387, -0.94000435, 0, 0, 0, 0, -1, 0, 0, 0
4943848, 0.2293396, 0.9122009, 0.21554565, 4943848, -1.5732807, 0.21844387, -0.94000435, 0, 0, 0, 0, -1, 0, 0, 0
4943848, 0.2293396, 0.9122009, 0.21554565, 4943848, -2.1369717, 0.0069031715, -3.7330475, 0, 0, 0, 0, -1, 0, 0, 0
4943848, 0.06930542, 0.5053711, 0.30841064, 4943848, -2.1369717, 0.0069031715, -3.7330475, 0, 0, 0, 0, -1, 0, 0, 0
4974365, -0.005203247, 0.047225952, 0.29618835, 4913330, -0.6989216, 0.07129717, -2.3665342, 0, 0, 0, 0, -1, 0, 0, 0
4974365, -0.005203247, 0.047225952, 0.29618835, 4974365, 1.447813, 0.56822157, -0.9219866, 1, 793, 839, 1, -1, 59342515613558, 0, 22386667
4913330, -0.05407715, -0.22886658, 0.2094574, 4913330, 1.9132801, 0.87013054, -0.5892496, 0, 0, 0, 1, -1, 0, 0, 0
4943848, -0.10903931, -0.256958, 0.09338379, 4943848, 1.51034, 1.0002799, 5.865097E-4, 0, 0, 0, 1, -1, 0, 0, 0
4943848, -0.20678711, 0.03010559, -0.051986694, 4943848, 1.51034, 1.0002799, 5.865097E-4, 0, 0, 0, 1, -1, 0, 0, 0
4943848, -0.23731995, 0.06187439, -0.07519531, 4943847, 0.8907872, 0.84991026, 0.35398197, 0, 0, 0, 1, -1, 0, 0, 0
4943847, -0.26664734, 0.027664185, -0.0849762, 4943848, 0.46675152, 0.56613207, 0.5005493, 0, 0, 0, 1, -1, 0, 0, 0
4943847, -0.26664734, 0.027664185, -0.0849762, 4943847, -0.16992247, 0.03457737, 0.48975468, 0, 0, 0, 1, -1, 0, 0, 0
4974366, -0.27641296, 8.239746E-4, -0.09474182, 4974366, -0.34583193, -0.21961594, 0.6086941, 0, 0, 0, 1, -1, 0, 0, 0
4943847, -0.27520752, -0.0016174316, -0.09352112, 4943847, -0.46550506, -0.3168006, 0.7371006, 0, 0, 0, 1, -1, 0, 0, 0
4943848, -0.19946289, -0.055389404, -0.06175232, 4943847, -0.46550506, -0.3168006, 0.7371006, 0, 0, 0, 1, -1, 0, 0, 0
4943848, -0.19946289, -0.055389404, -0.06175232, 4943848, -0.44265193, -0.14995575, 1.067069, 0, 0, 0, 1, -1, 0, 0, 0
4913330, -0.14202881, -0.115249634, -0.059310913, 4913330, -0.3507179, -0.08403063, 1.1799326, 0, 0, 0, 1, -1, 0, 0, 0
4943848, -0.0027618408, -0.16168213, -0.051986694, 4913330, -0.3507179, -0.08403063, 1.1799326, 0, 0, 0, 1, -1, 0, 0, 0
4943848, -0.0027618408, -0.16168213, -0.051986694, 4943848, -0.30666584, 0.16698933, 1.3422832, 0, 0, 0, 1, -1, 0, 0, 0
4943847, -0.0027618408, -0.20077515, -0.051986694, 4943847, -0.8438166, 0.41858816, 1.0649366, 0, 0, 0, 1, -1, 0, 0, 0
4913330, 0.0790863, -0.23498535, -0.05076599, 4913330, -1.0397747, 0.4742527, 0.71531487, 0, 0, 0, 1, -1, 0, 0, 0
7080078, 0.16339111, -0.23130798, -0.0031280518, 7080078, -0.7652689, 0.06641197, 0.40565205, 0, 0, 0, 1, -1, 0, 0, 0
5035401, 0.18536377, -0.23010254, -0.0067749023, 5035401, -0.45976955, -0.18005276, 0.16251183, 0, 0, 0, 1, -1, 0, 0, 0
5004883, 0.18780518, -0.25941467, -0.0385437, 5004883, -0.49295825, -0.3873763, 0.25527382, 0, 0, 0, -1, -1, 59342604332777, 0, 0
5065918, 0.1951294, -0.3168335, -0.07763672, 5065918, -0.6735448, -0.43474245, 0.5032921, 0, 0, 0, -1, -1, 0, 0, 0
5035400, 0.20736694, -0.3644867, -0.09963989, 5035400, -0.7274201, -0.43245697, 0.5004473, 0, 0, 0, -1, -1, 0, 0, 0
4943848, 0.2268982, -0.39746094, -0.108184814, 4943848, -0.63450646, -0.41284418, 0.2338419, 0, 0, 0, -1, -1, 0, 0, 0
4943847, 0.23057556, -0.4035797, -0.1191864, 4943847, -0.5095066, -0.3306675, -0.012374878, 0, 0, 0, -1, -1, 0, 0, 0
4943848, 0.21836853, -0.39501953, -0.1350708, 4943848, -0.37419838, -0.40093327, -0.36454105, 0, 0, 0, -1, -1, 0, 0, 0
4943848, 0.1951294, -0.54652405, -0.13383484, 4943848, 0.3001805, -0.067536354, -1.9062996, 0, 0, 0, -1, -1, 0, 0, 0
4913330, 0.103515625, -0.96435547, -0.17660522, 4913330, 1.3701595, 0.8905897, -4.965951, 0, 0, 0, -1, -1, 0, 0, 0
4974365, 0.103515625, -0.96435547, -0.24990845, 4974365, 0.7630057, 1.0723233, -2.8200731, 0, 0, 0, -1, -1, 0, 0, 0
4943848, -0.044296265, -0.97779846, -0.24990845, 4943848, 1.2010376, 0.93778896, -1.9662933, 0, 0, 0, -1, -1, 0, 0, 0
4943847, -0.14202881, -0.8372803, -0.26091003, 4943847, 1.2257203, 0.67812777, -0.7789211, 1, 238, 854, 0, -1, 0, 0, 94776198
4943848, -0.21166992, -0.5746155, -0.25479126, 4943848, 0.83373654, 0.11692715, -0.3804493, 0, 0, 0, 0, -1, 0, 0, 0
4943848, -0.26176453, -0.32661438, -0.23158264, 4943848, 0.635152, -0.3707857, -0.04920292, 0, 0, 0, 0, -1, 0, 0, 0
4943847, -0.29597473, -0.20077515, -0.19369507, 4943847, 0.49821243, -0.56613445, 0.35284138, 0, 0, 0, 0, -1, 0, 0, 0
4943848, -0.29963684, -0.16532898, -0.17172241, 4943848, 0.2831954, -0.6507673, 0.92072487, 0, 0, 0, 0, -1, 0, 0, 0
4943848, -0.2568817, -0.13723755, -0.15460205, 4943848, -0.10609415, -0.66282606, 1.6853085, 0, 0, 0, 0, -1, 0, 0, 0
4943847, -0.16889954, -0.099365234, -0.13995361, 4943847, -0.4008414, -0.4874754, 2.0745907, 0, 0, 0, 0, -1, 0, 0, 0
4943848, -0.03086853, -0.06149292, -0.11428833, 4943848, -0.38006353, -0.34489632, 2.051258, 0, 0, 0, 0, -1, 0, 0, 0
4943848, 0.12062073, -0.04560852, -0.07887268, 4943848, -0.31797802, -0.20857096, 1.6721964, 0, 0, 0, 0, -1, 0, 0, 0
4913330, 0.22569275, -0.032180786, -0.055648804, 4913330, -0.2931304, -0.24195099, 1.2041197, 0, 0, 0, 0, -1, 0, 0, 0
5279541, 0.29655457, -0.023620605, -0.0385437, 5279541, -0.32883495, -0.24043751, 0.6297369, 0, 0, 0, 0, -1, 0, 0, 0
4608154, 0.3209839, 0.022781372, -0.01411438, 4608154, -0.39214602, -0.28193521, 0.013744354, 0, 0, 0, 0, -1, 0, 0, 0
4974365, 0.28311157, 0.08753967, 0.006652832, 4974365, -0.45455265, -0.21314907, -0.42842293, 0, 0, 0, 0, -1, 0, 0, 0
4943848, 0.21957397, 0.13639832, 0.02986145, 4943848, -0.4050158, -0.16539526, -0.7178669, 0, 0, 0, 0, -1, 0, 0, 0
4913330, 0.14382935, 0.18528748, 0.0493927, 4913330, -0.2590175, -0.14285135, -0.7882767, 0, 0, 0, 0, -1, 0, 0, 0
7080078, 0.11329651, 0.27079773, 0.04574585, 7080078, -0.14598116, 0.13404274, -1.9502048, 0, 0, 0, 0, -1, 0, 0, 0
5035401, 0.03388977, 0.27323914, 0.04574585, 7080078, -0.14598116, 0.13404274, -1.9502048, 0, 0, 0, 0, -1, 0, 0, 0
5035401, 0.03388977, 0.27323914, 0.04574585, 5035401, 0.19186524, 0.26161242, -1.2761497, 0, 0, 0, 0, -1, 0, 0, 0
5004883, -0.023513794, 0.10708618, 0.015182495, 5004883, 0.43463472, 0.39390802, -1.7611799, 1, 654, 1028, 0, 1, 0, 0, 0
4943847, -0.19822693, -0.17756653, -0.08985901, 5004883, 0.43463472, 0.39390802, -1.7611799, 0, 0, 0, -1, 1, 59342754406683, 0, -7622761
4943847, -0.19822693, -0.17756653, -0.08985901, 4943847, -0.079108715, 0.25983763, -0.9802666, 0, 0, 0, -1, 1, 0, 0, 0
4913330, -0.34239197, -0.15924072, -0.07763672, 4943847, -0.079108715, 0.25983763, -0.9802666, 0, 0, 0, -1, 1, 0, 0, 0
4913330, -0.34239197, -0.15924072, -0.07763672, 4913330, 0.02186659, 0.037893295, -0.19158936, 0, 0, 0, -1, 1, 0, 0, 0
4943848, -0.3875885, -0.14456177, -0.0544281, 4943848, 0.23180017, -0.06462717, 0.15869427, 0, 0, 0, -1, 1, 0, 0, 0
4943847, -0.41325378, -0.12503052, -0.056869507, 4943847, 0.3373941, -0.1307621, 0.52498055, 0, 0, 0, -1, 1, 0, 0, 0
4974366, -0.41815186, -0.08226013, -0.07397461, 4974366, 0.15755346, -0.1015892, 0.88541126, 0, 0, 0, -1, 1, 0, 0, 0
4943847, -0.40715027, -0.04927063, -0.092300415, 4943847, -0.12101358, -0.10474014, 1.3296432, 0, 0, 0, -1, 1, 0, 0, 0
4943848, -0.36561584, -0.034622192, -0.09474182, 4943848, -0.31311828, -0.09953594, 1.8156309, 0, 0, 0, -1, 1, 0, 0, 0
4943848, -0.30818176, -0.019958496, -0.09841919, 4943848, -0.40233967, -0.07865429, 2.233223, 0, 0, 0, -1, 1, 0, 0, 0
4943847, -0.22879028, -0.011413574, -0.08375549, 4943847, -0.40083393, -0.012815475, 2.4562454, 0, 0, 0, -1, 1, 0, 0, 0
4943848, -0.1566925, 0.024017334, -0.067871094, 4943848, -0.35323662, 9.870529E-5, 2.5855694, 0, 0, 0, -1, 1, 0, 0, 0
4943848, 0.024093628, 0.1461792, -0.021453857, 4943848, -0.35323662, 9.870529E-5, 2.5855694, 0, 0, 0, -1, 1, 0, 0, 0
4943848, 0.024093628, 0.1461792, -0.021453857, 4943848, -0.2195667, 0.1376996, 2.4198685, 0, 0, 0, -1, 1, 0, 0, 0
4943847, 0.15483093, 0.20970154, -0.027542114, 4943848, -0.2195667, 0.1376996, 2.4198685, 0, 0, 0, -1, 1, 0, 0, 0
4943847, 0.15483093, 0.20970154, -0.027542114, 4943847, -0.09206435, 0.5616646, 1.1597319, 0, 0, 0, -1, 1, 0, 0, 0
4943848, 0.20368958, 0.17304993, -0.06175232, 4943848, 0.04714045, 0.088131905, 0.4667921, 0, 0, 0, -1, 1, 0, 0, 0
4943848, 0.23181152, 0.1278534, -0.0849762, 4943848, 0.0018192828, -0.39880037, -0.5546093, 0, 0, 0, -1, 1, 0, 0, 0
4943847, 0.23181152, 0.1278534, -0.108184814, 4943847, -0.42722228, -0.7385955, -1.014821, 0, 0, 0, -1, 1, 0, 0, 0
4943848, 0.24034119, -0.040725708, -0.11306763, 4943847, -0.42722228, -0.7385955, -1.014821, 0, 0, 0, -1, -1, 0, 98728333, 0
4943848, 0.24034119, -0.040725708, -0.11306763, 4943848, -0.73019433, -0.6679573, -1.4259558, 0, 0, 0, -1, -1, 0, 0, 0
4943847, 0.23057556, -0.15924072, -0.09841919, 4943847, -0.6699403, -0.42169237, -1.5002975, 0, 0, 0, -1, -1, 0, 0, 0
4913330, 0.20124817, -0.26063538, -0.088638306, 4913330, -0.48565778, -0.18522835, -1.3837719, 0, 0, 0, -1, -1, 0, 0, 0
7080079, 0.07052612, -0.42678833, -0.06542969, 7080079, -0.15457416, 0.24290705, -2.1211853, 0, 0, 0, -1, -1, 0, 0, 0
5035400, 0.004562378, -0.6552429, -0.0715332, 5035400, 0.5038744, 1.2286072, -4.479143, 0, 0, 0, -1, -1, 0, 0, 0
5035400, -0.12860107, -0.7493286, -0.09352112, 5035400, -0.064590245, 1.206491, -2.5437326, 0, 0, 0, -1, -1, 0, 0, 0
5035401, -0.27153015, -0.69189453, -0.1020813, 5035401, 0.52195895, 0.80401087, -1.9590387, 0, 0, 0, -1, -1, 0, 0, 0
5035400, -0.35827637, -0.6247101, -0.0849762, 5035400, 0.43215203, 0.5276675, -0.9492092, 1, 355, 875, 0, -1, 0, 0, 99602604
5157471, -0.42303467, -0.46955872, -0.04710388, 5157471, 0.22649315, 0.21083593, -0.23329258, 0, 0, 0, 0, -1, 0, 0, 0
4730224, -0.46824646, -0.29118347, -0.021453857, 4730224, 0.2629209, 0.0039224625, 0.44244194, 0, 0, 0, 0, -1, 0, 0, 0
4943848, -0.4621277, -0.29118347, -0.022659302, 4943848, 0.3236764, -0.1500616, 0.92441654, 0, 0, 0, 0, -1, 0, 0, 0
4913330, -0.4621277, -0.15190125, -0.022659302, 4913330, 0.18014506, -0.26360178, 1.195528, 0, 0, 0, 0, -1, 0, 0, 0
4943848, -0.4059143, -0.067596436, -0.036102295, 4943848, -0.08981097, -0.34518242, 1.6579695, 0, 0, 0, 0, -1, 0, 0, 0
4974365, -0.31185913, -0.028503418, -0.027542114, 4974365, -0.42087412, -0.37757015, 1.9250708, 0, 0, 0, 0, -1, 0, 0, 0
4943848, -0.17990112, -0.024841309, -0.01411438, 4943848, -0.5422262, -0.34238005, 2.0319214, 0, 0, 0, 0, -1, 0, 0, 0
4943847, -0.05407715, -0.028503418, -0.0018920898, 4943847, -0.38356328, -0.33341122, 1.7232504, 0, 0, 0, 0, -1, 0, 0, 0
4943848, 0.06808472, -0.024841309, 0.010299683, 4943848, -0.14225027, -0.3564005, 1.3765821, 0, 0, 0, 0, -1, 0, 0, 0
4913330, 0.15238953, -0.008972168, 0.0115356445, 4913330, -0.11527823, -0.40234947, 1.0550442, 0, 0, 0, 0, -1, 0, 0, 0
4974365, 0.21713257, 0.019134521, 0.016418457, 4974365, -0.09273629, -0.38850737, 0.87058353, 0, 0, 0, 0, -1, 0, 0, 0
4943848, 0.24890137, 0.06921387, 0.02130127, 4943848, -0.08593392, -0.3220935, 0.61524296, 0, 0, 0, 0, -1, 0, 0, 0
4943848, 0.23425293, 0.1144104, 0.02986145, 4943848, -0.118423596, -0.24316072, 0.3475809, 0, 0, 0, 0, -1, 0, 0, 0
4943847, 0.20857239, 0.16816711, 0.0652771, 4943847, -0.12451193, -0.2889104, 0.21930122, 0, 0, 0, 0, -1, 0, 0, 0
4943848, 0.19024658, 0.22070313, 0.08482361, 4943848, -0.0013393462, -0.29030943, 0.04035282, 0, 0, 0, 0, -1, 0, 0, 0
4943848, 0.17680359, 0.25735474, 0.08972168, 4943848, 0.20931005, -0.4285636, -0.04162121, 0, 0, 0, 0, -1, 0, 0, 0
4943847, 0.2611084, 0.32455444, 0.0652771, 4943847, 0.22456315, -0.080266, -0.61572933, 0, 0, 0, 0, -1, 0, 0, 0
4943848, 0.33442688, 0.31111145, 0.039627075, 4943848, -0.017240494, -0.0190835, -1.4454393, 0, 0, 0, 0, -1, 0, 0, 0
4943848, 0.28067017, 0.19017029, 0.02130127, 4943848, -0.20258906, 0.06521273, -1.3496351, 0, 0, 0, 0, -1, 0, 0, 0
4943847, 0.22445679, -0.0052948, -0.012893677, 4943847, -0.25444144, 0.34530926, -1.9340496, 0, 0, 0, 0, -1, 0, 0, 0
4943848, 0.12428284, -0.17512512, -0.05076599, 4943848, -0.21686968, 0.5548868, -2.3906336, 1, 643, 1174, 0, 1, 0, 0, 0
4943848, -0.011306763, -0.2728424, -0.0703125, 4943848, -0.39736822, 0.50247765, -2.0245886, 0, 0, 0, -1, 1, 59342995802516, 0, -7320989
5035400, -0.21411133, -0.2997284, -0.015335083, 4943848, -0.39736822, 0.50247765, -2.0245886, 0, 0, 0, -1, 1, 0, 0, 0
5035400, -0.21411133, -0.2997284, -0.015335083, 5035400, -0.20589495, 0.21003914, -0.11130524, 0, 0, 0, -1, 1, 0, 0, 0
5035400, -0.30329895, -0.27529907, 0.016418457, 5035400, -0.20589495, 0.21003914, -0.11130524, 0, 0, 0, -1, 1, 0, 0, 0
5035400, -0.30329895, -0.27529907, 0.016418457, 5035400, 0.15164074, 0.014803886, 0.867816, 0, 0, 0, -1, 1, 0, 0, 0
5004883, -0.30697632, -0.21177673, 0.0115356445, 5004883, 0.03042093, -0.091328144, 1.1572685, 0, 0, 0, -1, 1, 0, 0, 0
4943848, -0.27397156, -0.115249634, 0.010299683, 4943848, -0.09512524, -0.10543823, 1.326231, 0, 0, 0, -1, 1, 0, 0, 0
4943847, -0.22143555, -0.034622192, 0.004196167, 4943847, -0.22918156, -0.09512615, 1.3939466, 0, 0, 0, -1, 1, 0, 0, 0
4943847, -0.11515808, 0.080200195, 0.026184082, 4943847, -0.22918156, -0.09512615, 1.3939466, 0, 0, 0, -1, 1, 0, 0, 0
4943847, -0.11515808, 0.080200195, 0.026184082, 4943847, -0.40427762, -0.0894804, 1.4322004, 0, 0, 0, -1, 1, 0, 0, 0
4943848, -0.061401367, 0.1315155, 0.048187256, 4943848, -0.3568503, -0.083293915, 1.3864403, 0, 0, 0, -1, 1, 0, 0, 0
4913330, 0.003326416, 0.18772888, 0.06161499, 4913330, -0.14628425, -0.106096745, 1.3247232, 0, 0, 0, -1, 1, 0, 0, 0
4974365, 0.043655396, 0.21702576, 0.055511475, 4974365, 0.19215779, -0.086289406, 1.0968981, 0, 0, 0, -1, 1, 0, 0, 0
4943848, 0.08274841, 0.2133789, 0.026184082, 4943848, 0.3151734, -0.066114426, 0.7428875, 0, 0, 0, -1, 1, 0, 0, 0
4943847, 0.14016724, 0.100982666, -0.06175232, 4943848, 0.3151734, -0.066114426, 0.7428875, 0, 0, 0, -1, 1, 0, 0, 0
4943847, 0.14016724, 0.100982666, -0.06175232, 4943847, -0.004937589, 0.19717455, -0.20104313, 0, 0, 0, -1, 1, 0, 0, 0
4943848, 0.13406372, -0.0040740967, -0.0861969, 4943848, -0.21060002, 0.38586998, -0.58888817, 0, 0, 0, -1, 1, 0, 0, 0
4943848, 0.12672424, -0.123794556, -0.09718323, 4943848, -0.13769466, 0.32709503, -0.72507477, 0, 0, 0, -1, 1, 0, 0, 0
4943847, 0.123062134, -0.1885376, -0.09474182, 4943847, -0.02367273, 0.10386562, -0.7829771, 0, 0, 0, -1, 1, 0, 0, 0
4943848, 0.10595703, -0.19221497, -0.08131409, 4943848, -0.10500935, -0.13729239, -0.8857498, 0, 0, 0, -1, 1, 0, 0, 0
4943847, 0.07296753, -0.18365479, -0.0703125, 4943848, -0.10500935, -0.13729239, -0.8857498, 0, 0, 0, -1, 1, 0, 0, 0
4943847, 0.07296753, -0.18365479, -0.0703125, 4943847, 0.5416534, 0.23572111, -4.417655, 0, 0, 0, -1, -1, 0, 115927813, 0
4943848, 0.0790863, -0.24230957, -0.048324585, 4943848, -0.114563614, 0.5715494, -2.942687, 0, 0, 0, -1, -1, 0, 0, 0
4943848, 0.075424194, -0.3779297, -0.043426514, 4943848, 0.40488815, 0.04482889, -2.3384142, 0, 0, 0, -1, -1, 0, 0, 0
4913330, -0.12004089, -0.3009491, -0.06542969, 4943848, 0.40488815, 0.04482889, -2.3384142, 0, 0, 0, -1, -1, 0, 0, 0
4943848, -0.20799255, -0.22766113, -0.04710388, 4943847, 0.37460122, -0.22096157, -1.8445625, 1, 411, 910, 0, -1, 0, 0, 70160677
4943848, -0.20799255, -0.22766113, -0.04710388, 4943848, -0.04659967, 0.08137512, -0.76693344, 0, 0, 0, 0, -1, 0, 0, 0
4943848, -0.29963684, -0.0688324, -0.051986694, 4943848, -0.30103377, 0.015694618, -0.5348053, 0, 0, 0, 0, -1, 0, 0, 0
7080078, -0.44500732, 0.03378296, -0.004333496, 7080078, -0.10542151, 0.14007425, -0.03570938, 0, 0, 0, 0, -1, 0, 0, 0
5035400, -0.45480347, 0.021575928, -0.023895264, 5035400, -0.0067211986, 0.1277647, 0.41797352, 0, 0, 0, 0, -1, 0, 0, 0
5035400, -0.43403625, 0.01789856, -0.032440186, 5035400, -0.15096511, 0.07798052, 0.89788246, 0, 0, 0, 0, -1, 0, 0, 0
5035401, -0.39126587, 0.03378296, -0.037338257, 5035401, -0.17068431, 0.07917881, 1.4766235, 0, 0, 0, 0, -1, 0, 0, 0
5035400, -0.33628845, 0.06555176, -0.039779663, 5035400, -0.20022193, 0.0775218, 1.7039385, 0, 0, 0, 0, -1, 0, 0, 0
4913330, -0.29353333, 0.06555176, -0.036102295, 4913330, -0.14120209, 0.0530262, 1.526618, 0, 0, 0, 0, -1, 0, 0, 0
4943848, -0.29353333, 0.080200195, -0.036102295, 4943848, -0.14085498, -0.010500908, 1.2265348, 0, 0, 0, 0, -1, 0, 0, 0
4943848, -0.23731995, 0.08143616, -0.04586792, 4943848, -0.18624695, -0.08462095, 1.0770512, 0, 0, 0, 0, -1, 0, 0, 0
4974365, -0.18966675, 0.07899475, -0.03488159, 4974365, -0.17079093, -0.12875748, 0.9241915, 0, 0, 0, 0, -1, 0, 0, 0
4943848, -0.14569092, 0.08143616, -0.028778076, 4943848, -0.14476821, -0.16022253, 0.7603874, 0, 0, 0, 0, -1, 0, 0, 0
4943847, -0.11393738, 0.06677246, -0.040985107, 4943847, -0.079192474, -0.19780731, 0.6984377, 0, 0, 0, 0, -1, 0, 0, 0
4913330, -0.088272095, 0.05455017, -0.053207397, 4913330, -0.07055853, -0.30818367, 0.67837524, 0, 0, 0, 0, -1, 0, 0, 0
4974365, -0.06996155, 0.04598999, -0.064208984, 4974365, -0.09485319, -0.3544364, 0.6074209, 0, 0, 0, 0, -1, 0, 0, 0
4913331, -0.03086853, 0.039901733, -0.06175232, 4913331, -0.12776665, -0.4227934, 0.4734516, 0, 0, 0, 0, -1, 0, 0, 0
4974365, -0.013748169, 0.03010559, -0.05810547, 4974365, -0.17549509, -0.49695683, 0.35325146, 0, 0, 0, 0, -1, 0, 0, 0
4943847, 0.022888184, 0.0032653809, -0.044662476, 4943847, -0.22698449, -0.5009599, 0.26114273, 0, 0, 0, 0, -1, 0, 0, 0
4913331, 0.026550293, -0.030944824, -0.03366089, 4913331, -0.26347494, -0.425642, 0.19021034, 0, 0, 0, 0, -1, 0, 0, 0
4974365, 0.03265381, -0.07493591, -0.005569458, 4974365, -0.24739218, -0.31446886, 0.12632656, 0, 0, 0, 0, -1, 0, 0, 0
4913330, 0.05342102, -0.11402893, 0.0029907227, 4913330, -0.18701014, -0.15006256, 0.13620663, 0, 0, 0, 0, -1, 0, 0, 0
4943848, 0.058303833, -0.16532898, 0.004196167, 4943848, -0.0808247, -0.04044056, 0.18421364, 0, 0, 0, 0, -1, 0, 0, 0
4943847, 0.0619812, -0.21054077, 0.007858276, 4943847, 0.022576645, 0.061622143, 0.13819599, 0, 0, 0, 0, -1, 0, 0, 0
4943848, 0.050979614, -0.2361908, -0.0018920898, 4943848, 0.08331093, 0.116659164, 0.12967205, 0, 0, 0, 0, -1, 0, 0, 0
4943847, 0.043655396, -0.24719238, -0.011657715, 4943847, 0.09876506, 0.16534948, 0.05209732, 0, 0, 0, 0, -1, 0, 0, 0
4974366, 0.027770996, -0.24108887, -0.025100708, 4974366, 0.12318309, 0.24404526, 0.0015192032, 0, 0, 0, 0, -1, 0, 0, 0
4913330, 0.004562378, -0.22154236, -0.053207397, 4913330, 0.14934869, 0.3671422, -0.045459747, 0, 0, 0, 0, -1, 0, 0, 0
4943847, -0.013748169, -0.18609619, -0.06542969, 4943847, 0.113996014, 0.42567825, -0.03151989, 0, 0, 0, 0, -1, 0, 0, 0
5035401, -0.011306763, -0.15190125, -0.06542969, 5035401, -0.033451155, 0.36667728, 0.0366354, 0, 0, 0, 0, -1, 0, 0, 0
5065918, -3.2043457E-4, -0.11036682, -0.072753906, 5035401, -0.033451155, 0.36667728, 0.0366354, 0, 0, 0, 0, -1, 0, 0, 0
5065918, -3.2043457E-4, -0.11036682, -0.072753906, 5065918, -0.30954182, -0.11301279, 0.17129803, 0, 0, 0, 0, -1, 0, 0, 0
5004883, 0.022888184, -0.10058594, -0.064208984, 5065918, -0.30954182, -0.11301279, 0.17129803, 0, 0, 0, 0, -1, 0, 0, 0
5035400, 0.052200317, -0.099365234, -0.055648804, 5035400, -0.39800495, -0.03132391, 0.29486275, 0, 0, 0, 0, -1, 0, 0, 0
4974365, 0.07052612, -0.09448242, -0.028778076, 5004883, -0.47669843, 0.030133724, 0.28401184, 0, 0, 0, 0, -1, 0, 0, 0
4974365, 0.07052612, -0.09448242, -0.028778076, 4974365, -0.22785218, 0.0941515, -0.016732216, 0, 0, 0, 0, -1, 0, 0, 0
4913330, 0.06442261, -0.06149292, 0.004196167, 4974365, -0.22785218, 0.0941515, -0.016732216, 0, 0, 0, 0, -1, 0, 0, 0
4913330, 0.06442261, -0.06149292, 0.004196167, 4913330, 0.119359314, 0.13791323, -0.4405508, 0, 0, 0, 0, -1, 0, 0, 0
4943848, 0.036331177, -0.0028533936, -0.008010864, 4913330, 0.119359314, 0.13791323, -0.4405508, 0, 0, 0, 0, -1, 0, 0, 0
4943848, 0.010665894, 0.027664185, -0.011657715, 4974365, 0.20155244, 0.120313644, -0.59990406, 0, 0, 0, 0, -1, 0, 0, 0
4943848, 0.010665894, 0.027664185, -0.011657715, 4943848, 0.13555527, 0.010050297, -0.60057163, 0, 0, 0, 0, -1, 0, 0, 0
4943847, -0.023513794, 0.03866577, -0.020217896, 4943847, 0.05430995, -0.101073265, -0.4406271, 0, 0, 0, 0, -1, 0, 0, 0
4943848, -0.040634155, 0.04966736, -0.021453857, 4943848, -0.04878807, -0.14516401, -0.3152895, 0, 0, 0, 0, -1, 0, 0, 0
4943848, -0.045516968, 0.053329468, -0.019012451, 4943848, -0.16065466, -0.16952276, -0.18799591, 0, 0, 0, 0, -1, 0, 0, 0
4943848, -0.016189575, 0.021575928, -0.015335083, 4943848, -0.16065466, -0.16952276, -0.18799591, 0, 0, 0, 0, -1, 0, 0, 0
4943848, -0.016189575, 0.021575928, -0.015335083, 4943848, -0.24177453, -0.22412777, -0.1889553, 0, 0, 0, 0, -1, 0, 0, 0
4943848, -0.019866943, -0.0028533936, -0.011657715, 4943848, -0.23224664, -0.13046074, -0.22089863, 0, 0, 0, 0, -1, 0, 0, 0
4943847, -0.027191162, -0.0028533936, -0.005569458, 4943847, -0.13572085, 0.049166203, -0.22041512, 0, 0, 0, 0, -1, 0, 0, 0
4913330, -0.027191162, -0.016296387, -0.005569458, 4913330, -0.08606595, 0.016320229, -0.1707592, 0, 0, 0, 0, -1, 0, 0, 0
4943847, -0.03086853, -0.060272217, -0.025100708, 4913330, -0.08606595, 0.016320229, -0.1707592, 0, 0, 0, -1, -1, 59343369974495, 0, 0
4943848, -0.056518555, -0.052947998, -0.025100708, 4974366, -0.0473478, 0.06325054, -0.08026409, 0, 0, 0, -1, -1, 0, 0, 0
4943848, -0.056518555, -0.052947998, -0.025100708, 4943848, 0.0029751211, 0.10891962, 0.16026878, 0, 0, 0, -1, -1, 0, 0, 0
4943848, -0.0736084, -0.023620605, -0.0385437, 4943848, 0.0029751211, 0.10891962, 0.16026878, 0, 0, 0, -1, -1, 0, 0, 0
4943848, -0.0736084, -0.023620605, -0.0385437, 4943848, 0.015677184, 0.12038183, 0.50588036, 0, 0, 0, -1, -1, 0, 0, 0
4974365, -0.07484436, -4.119873E-4, -0.02999878, 4974365, 0.04807529, 0.0062851906, 0.5363636, 0, 0, 0, -1, -1, 0, 0, 0
4943848, -0.06384277, 0.04598999, -0.0067749023, 4943848, 0.02782552, -0.045594692, 0.3451357, 0, 0, 0, -1, -1, 0, 0, 0
4943847, -0.039398193, 0.08143616, 0.00541687, 4943847, -0.0595157, -0.16160345, 0.050082207, 0, 0, 0, -1, -1, 0, 0, 0
7049561, -0.008865356, 0.1816101, 0.0335083, 7049561, -0.13765092, -0.17617083, -0.15703106, 0, 0, 0, -1, -1, 0, 0, 0
5035400, -0.008865356, 0.21826172, 0.046951294, 5035400, -0.16258319, -0.16973543, -0.3360443, 0, 0, 0, -1, -1, 0, 0, 0
5035400, 0.007003784, 0.2243805, 0.055511475, 5035400, -0.16258319, -0.16973543, -0.3360443, 0, 0, 0, -1, -1, 0, 0, 0
5035400, 0.007003784, 0.2243805, 0.055511475, 5035400, -0.18364221, -0.15668774, -0.5626793, 0, 0, 0, -1, -1, 0, 0, 0
5004883, 0.00944519, 0.22802734, 0.050628662, 5004883, -0.19307393, -0.14706993, -0.60136604, 0, 0, 0, -1, -1, 0, 0, 0
4943847, -0.025970459, 0.20970154, 0.04084778, 4943847, -0.21301028, -0.14088583, -0.5859194, 0, 0, 0, -1, -1, 0, 0, 0
4943848, -0.024749756, 0.28056335, 0.043289185, 4943848, -0.21427737, -0.19533205, -1.2903337, 0, 0, 0, -1, -1, 0, 0, 0
4974365, -0.012542725, 0.5786743, 0.034744263, 4974365, 0.11126672, -0.12156582, -1.5150232, 0, 0, 0, -1, -1, 0, 0, 0
4943848, -0.052841187, 0.68496704, 0.038406372, 4943848, -0.15378775, 0.07307577, -1.0637112, 0, 0, 0, -1, -1, 0, 0, 0
4943848, -0.123703, 0.5994415, 0.028625488, 4943848, -0.28519323, 0.13773823, -0.72122765, 1, 920, 1033, 0, -1, 0, 0, 120499427
4913330, -0.17869568, 0.4491577, -0.0018920898, 4913330, -0.71552485, -0.1340642, -0.704607, 0, 0, 0, 0, -1, 0, 0, 0
4974365, -0.22267151, 0.3917389, 0.004196167, 4974365, -0.5044311, -0.04782915, -0.3624344, 0, 0, 0, 0, -1, 0, 0, 0
4974365, -0.28741455, 0.3734131, 0.026184082, 4974365, -0.5207926, 0.17599869, 0.40838432, 0, 0, 0, 0, -1, 0, 0, 0
4913330, -0.29229736, 0.29400635, 0.054275513, 4913330, -0.48378274, 0.3205099, 0.88823223, 0, 0, 0, 0, -1, 0, 0, 0
4974365, -0.26298523, 0.17549133, 0.07261658, 4974365, -0.19253936, 0.28013897, 1.1724339, 0, 0, 0, 0, -1, 0, 0, 0
4913331, -0.2202301, 0.06555176, 0.07505798, 4913331, 0.10899839, 0.14077353, 1.156702, 0, 0, 0, 0, -1, 0, 0, 0
4913330, -0.1725769, -0.017501831, 0.050628662, 4913330, 0.27128616, -0.021800995, 1.1473761, 0, 0, 0, 0, -1, 0, 0, 0
4974365, -0.13104248, -0.05050659, 0.023742676, 4974365, 0.19584522, -0.04276085, 1.084054, 0, 0, 0, 0, -1, 0, 0, 0
4943848, -0.09805298, -0.063934326, 0.018859863, 4943848, -0.028362721, -0.011005402, 1.0575132, 0, 0, 0, 0, -1, 0, 0, 0
4943847, -0.055282593, -0.09692383, 0.022521973, 4943847, -0.13028565, 0.027891874, 1.0098171, 0, 0, 0, 0, -1, 0, 0, 0
4943848, -0.0039978027, -0.11769104, 0.039627075, 4943848, -0.14736333, 0.03767991, 0.8715763, 0, 0, 0, 0, -1, 0, 0, 0
4943847, 0.03265381, -0.12258911, 0.0493927, 4943847, -0.052285254, 0.018808126, 0.68171406, 0, 0, 0, 0, -1, 0, 0, 0
4943848, 0.06686401, -0.11769104, 0.034744263, 4943848, 0.06598425, -0.042687654, 0.3930359, 0, 0, 0, 0, -1, 0, 0, 0
4943848, 0.06564331, -0.09448242, 0.02130127, 4943848, 0.08988634, -0.112005234, -0.0017938614, 0, 0, 0, 0, -1, 0, 0, 0
4943847, 0.04975891, -0.08226013, 5.493164E-4, 4943847, 0.013846099, -0.17952132, -0.2530594, 0, 0, 0, 0, -1, 0, 0, 0
4943848, 0.042419434, -0.076156616, -6.866455E-4, 4943848, -0.19553477, -0.29841018, -0.33583355, 0, 0, 0, 0, -1, 0, 0, 0
4943848, 0.03388977, -0.09082031, 5.493164E-4, 4943848, -0.3173487, -0.26722836, -0.15618896, 0, 0, 0, 0, -1, 0, 0, 0
7049560, 0.027770996, -0.10058594, 0.0017547607, 7049560, -0.4555574, -0.17242146, 0.27682877, 0, 0, 0, 0, -1, 0, 0, 0
5035400, 0.050979614, -0.14091492, 0.006652832, 7049560, -0.4555574, -0.17242146, 0.27682877, 0, 0, 0, 0, -1, 0, 0, 0
5035400, 0.07296753, -0.14579773, 0.017623901, 5035401, -0.45966926, -0.074715614, 0.4230137, 0, 0, 0, 0, -1, 0, 0, 0
5035401, 0.091293335, -0.12623596, 0.027420044, 5035400, -0.6035389, 0.2515726, 0.51450634, 0, 0, 0, 0, -1, 0, 0, 0
5035401, 0.091293335, -0.12623596, 0.027420044, 5035401, -0.12284163, 0.16267276, 0.5553446, 0, 0, 0, 0, -1, 0, 0, 0
4577637, 0.14260864, 0.022781372, 0.017623901, 5035401, -0.12284163, 0.16267276, 0.5553446, 0, 0, 0, 0, -1, 0, 0, 0
4577637, 0.14260864, 0.022781372, 0.017623901, 4577637, 0.024136215, -0.005886078, 0.28697968, 0, 0, 0, -1, -1, 59343578201266, 0, 0
4943848, 0.15115356, 0.04966736, -6.866455E-4, 4577637, 0.024136215, -0.005886078, 0.28697968, 0, 0, 0, -1, -1, 0, 0, 0
4943847, 0.14506531, 0.0069122314, -0.03366089, 4974365, 0.016080737, -0.036396503, 0.127491, 0, 0, 0, -1, -1, 0, 0, 0
4943848, 0.15115356, -0.048065186, -0.059310913, 4943848, 4.3302774E-4, -0.02214384, -0.0445776, 0, 0, 0, -1, -1, 0, 0, 0
4943847, 0.14506531, -0.11036682, -0.0861969, 4943847, 0.067098945, 0.0017571449, -0.21012783, 0, 0, 0, -1, -1, 0, 0, 0
4943848, 0.13038635, -0.18121338, -0.103302, 4943848, 0.1435031, 0.038334846, -0.45036697, 0, 0, 0, -1, -1, 0, 0, 0
4943848, 0.14627075, -0.5782776, -0.10574341, 4943847, 0.13326964, 0.10189295, -0.60884666, 0, 0, 0, -1, -1, 0, 0, 0
4943847, 0.11817932, -0.9948883, -0.13017273, 4943848, 0.12611577, 0.10751438, -0.87436485, 0, 0, 0, -1, -1, 0, 0, 0
4943848, 0.11817932, -0.9948883, -0.1350708, 4943848, 0.34185112, 0.2239523, -3.6899796, 0, 0, 0, -1, -1, 0, 0, 0
4913330, 0.030212402, -0.87760925, -0.1350708, 4943847, -0.20624915, 0.5895028, -1.8011847, 0, 0, 0, -1, -1, 0, 0, 0
4943848, -0.02230835, -0.78108215, -0.08253479, 4943848, 0.15022852, 0.36186314, -1.7422132, 1, 194, 899, 0, -1, 0, 0, 82572031
4943848, -0.02230835, -0.78108215, -0.08253479, 4943848, -0.7865372, -0.042238235, -0.20750427, 0, 0, 0, 0, -1, 0, 0, 0
4943848, -0.14448547, -0.3803711, 0.07627869, 4943848, -0.7865372, -0.042238235, -0.20750427, 0, 0, 0, 0, -1, 0, 0, 0
4943848, -0.14448547, -0.3803711, 0.07627869, 4943848, -0.52149534, -0.04177332, -0.37491608, 0, 0, 0, 0, -1, 0, 0, 0
4913330, -0.24343872, -0.270401, 0.08604431, 4943848, -0.52149534, -0.04177332, -0.37491608, 0, 0, 0, 0, -1, 0, 0, 0
4943848, -0.24099731, -0.270401, 0.0493927, 4943847, -0.17350903, -0.038769245, 0.013622284, 0, 0, 0, 0, -1, 0, 0, 0
4943848, -0.24099731, -0.270401, 0.0493927, 4943848, -0.047747053, -0.05942011, 0.81691647, 0, 0, 0, 0, -1, 0, 0, 0
4943848, -0.2019043, -0.23986816, 0.012741089, 4943848, -0.02593678, -0.08129501, 1.0181684, 0, 0, 0, 0, -1, 0, 0, 0
4943848, -0.09927368, -0.123794556, -0.021453857, 4943848, -0.02593678, -0.08129501, 1.0181684, 0, 0, 0, 0, -1, 0, 0, 0
4913330, -0.049194336, -0.08470154, -0.064208984, 4943847, 0.31032103, -0.1608262, 1.1059694, 0, 0, 0, 0, -1, 0, 0, 0
4913330, -0.049194336, -0.08470154, -0.064208984, 4913330, 0.2452912, -0.24009085, 0.7242985, 0, 0, 0, 0, -1, 0, 0, 0
7080078, -0.014984131, -0.06149292, -0.09474182, 7080078, 0.2657849, -0.2504964, 0.5646343, 0, 0, 0, 0, -1, 0, 0, 0
5035401, 0.0021209717, -0.039505005, -0.10940552, 5035401, 0.15595345, -0.13612366, 0.24619865, 0, 0, 0, 0, -1, 0, 0, 0
5035400, -0.012542725, -0.030944824, -0.11795044, 5035400, 0.07714981, -0.06146288, -0.12124729, 0, 0, 0, 0, -1, 0, 0, 0
5004883, -0.055282593, -0.04194641, -0.12162781, 5004883, -0.031251546, 0.009194374, -0.36988926, 0, 0, 0, 0, -1, 0, 0, 0
5065918, -0.1053772, -0.046829224, -0.124069214, 5065918, 0.03760388, -0.0052678585, -0.3173628, 0, 0, 0, 0, -1, 0, 0, 0
4943848, -0.16036987, -0.046829224, -0.12284851, 4943848, 0.10733291, 0.0016014576, -0.12718678, 0, 0, 0, 0, -1, 0, 0, 0
4913330, -0.20678711, -0.043167114, -0.12773132, 4913330, 0.12616366, 0.004346609, 0.09792805, 0, 0, 0, 0, -1, 0, 0, 0
4974365, -0.23855591, -0.055389404, -0.12284851, 4974365, 0.056341693, 0.04033041, 0.2592697, 0, 0, 0, 0, -1, 0, 0, 0
4943847, -0.26052856, -0.09326172, -0.13017273, 4943847, -0.12773229, -0.008398533, 0.45480156, 0, 0, 0, 0, -1, 0, 0, 0
4943848, -0.25808716, -0.13723755, -0.13383484, 4943848, -0.33246732, -0.12708902, 0.59914684, 0, 0, 0, 0, -1, 0, 0, 0
4913330, -0.23243713, -0.17512512, -0.13627625, 4913330, -0.46868244, -0.30299854, 0.6145792, 0, 0, 0, 0, -1, 0, 0, 0
4974365, -0.20310974, -0.1885376, -0.120407104, 4974365, -0.48068276, -0.27562523, 0.6065903, 0, 0, 0, 0, -1, 0, 0, 0
4943848, -0.14202881, -0.19709778, -0.095962524, 4943848, -0.31476662, 0.13397479, 0.41349983, 0, 0, 0, 0, -1, 0, 0, 0
4943848, -0.104156494, -0.20689392, -0.088638306, 4943848, -0.13919592, 0.24126863, 0.1535263, 0, 0, 0, 0, -1, 0, 0, 0
4943847, -0.07972717, -0.2361908, -0.0861969, 4943847, -0.004797695, 0.19109678, -0.3163042, 0, 0, 0, 0, -1, 0, 0, 0
4943848, -0.05407715, -0.25086975, -0.080078125, 4943848, 0.014935054, 0.046195507, -0.46582508, 0, 0, 0, 0, -1, 0, 0, 0
4943848, 0.052200317, -0.0541687, -0.076416016, 4943848, 0.3176016, -0.28119802, 0.37582493, 0, 0, 0, 0, -1, 0, 0, 0
4943847, 0.16459656, 0.17304993, -0.0703125, 4943847, 0.2576714, -0.17005372, -1.2322531, 0, 0, 0, 0, -1, 0, 0, 0
4943848, 0.14138794, 0.1974945, -0.040985107, 4943848, 0.0954583, -0.13366556, -1.1732454, 0, 0, 0, 0, -1, 0, 0, 0
4943848, 0.099853516, 0.18283081, -0.055648804, 4943848, 0.16897781, 0.10378647, -1.028471, 1, 808, 1366, 0, -1, 59343777286370, 0, 53160104
4943847, 0.035095215, 0.13639832, -0.06542969, 4943847, 0.08398186, 0.3353362, -1.0543051, 0, 0, 0, 0, -1, 0, 0, 0
4943848, -0.06384277, 0.1449585, -0.05810547, 4943848, -0.058231145, 0.5056689, -0.78480434, 0, 0, 0, 0, -1, 0, 0, 0
4913330, -0.15180969, 0.16940308, -0.027542114, 4913330, -0.18954913, 0.6337731, -0.7243748, 0, 0, 0, 0, -1, 0, 0, 0
4974365, -0.2202301, 0.15716553, -6.866455E-4, 4974365, -0.055422306, 0.64741755, -0.6701803, 0, 0, 0, 0, -1, 0, 0, 0
4943848, -0.28009033, 0.12297058, 0.020065308, 4943848, 0.15569879, 0.51131845, -0.4827261, 0, 0, 0, 0, -1, 0, 0, 0
4943848, -0.33018494, 0.08509827, 0.015182495, 4943848, 0.38217786, 0.31631374, -0.20016098, 0, 0, 0, 0, -1, 0, 0, 0
4943847, -0.35705566, 0.06555176, 0.017623901, 4943847, 0.62341213, 0.15901852, 0.13972473, 0, 0, 0, 0, -1, 0, 0, 0
5065918, -0.34729004, 0.05088806, -0.0104522705, 4943847, 0.62341213, 0.15901852, 0.13972473, 0, 0, 0, 0, -1, 0, 0, 0
5035401, -0.29963684, 0.041107178, -0.023895264, 7019043, 0.5794094, 0.089505196, 1.0424223, 0, 0, 0, 0, -1, 0, 0, 0
5035400, -0.22879028, 0.022781372, -0.027542114, 5065918, 0.5006791, 0.2274301, 1.4162283, 0, 0, 0, 0, -1, 0, 0, 0
5035400, -0.22879028, 0.022781372, -0.027542114, 5035400, -0.009605076, 0.3709023, 1.5527649, 0, 0, 0, 0, -1, 0, 0, 0
4943848, -0.08216858, -0.019958496, -0.011657715, 5035400, -0.009605076, 0.3709023, 1.5527649, 0, 0, 0, 0, -1, 0, 0, 0
4913330, -0.018630981, -0.040725708, -0.04222107, 5035400, 0.60520357, 0.19413161, 1.5645733, 0, 0, 0, 0, -1, 0, 0, 0
4974365, 0.038772583, -0.067596436, -0.051986694, 4943848, 0.5293657, -0.024578571, 1.2447996, 0, 0, 0, 0, -1, 0, 0, 0
4943848, 0.07052612, -0.10546875, -0.0385437, 4913330, 0.41296744, -0.16868591, 0.9014282, 0, 0, 0, 0, -1, 0, 0, 0
4943848, 0.09007263, -0.10058594, -0.03366089, 4974365, 0.457921, -0.4814458, 0.76161766, 0, 0, 0, 0, -1, 0, 0, 0
4974365, 0.09251404, -0.0370636, -0.023895264, 4943848, 0.16235821, -0.37516928, 0.27621746, 0, 0, 0, 0, -1, 0, 0, 0
4943848, 0.087631226, 0.04966736, -0.004333496, 4943848, -0.1323309, -0.4466002, -0.07578087, 0, 0, 0, 0, -1, 0, 0, 0
4943847, 0.091293335, 0.1302948, 0.0335083, 4974365, -0.63761896, -0.63295746, -0.32577133, 0, 0, 0, 0, -1, 0, 0, 0
4943847, 0.091293335, 0.1302948, 0.0335083, 4943847, -1.0338471, -0.6697111, -0.8560858, 0, 0, 0, 0, -1, 0, 0, 0
4943848, 0.06930542, 0.19137573, 0.054275513, 4943847, -1.0338471, -0.6697111, -0.8560858, 0, 0, 0, 0, -1, 0, 0, 0
4913330, 0.042419434, 0.23046875, 0.08972168, 4943848, -1.2331262, -0.6446569, -0.9772148, 0, 0, 0, 0, -1, 0, 0, 0
4974365, 0.018005371, 0.27079773, 0.14103699, 4943848, -1.3233235, -0.48495698, -1.1023674, 0, 0, 0, 0, -1, 0, 0, 0
4974365, 0.018005371, 0.27079773, 0.14103699, 4974365, -1.3417506, -0.27302933, -1.0625095, 0, 0, 0, 0, -1, 0, 0, 0
4943847, -0.08338928, 0.35142517, 0.2436676, 4974365, -1.3417506, -0.27302933, -1.0625095, 0, 0, 0, 0, -1, 0, 0, 0
4943847, -0.08338928, 0.35142517, 0.2436676, 4943847, -1.0040598, -0.18949485, -0.8330059, 0, 0, 0, -1, -1, 59343910547308, 0, 0
4943848, -0.13226318, 0.38563538, 0.27296448, 4943848, -0.76258636, -0.27824545, -0.46857357, 0, 0, 0, -1, -1, 0, 0, 0
4943848, -0.18113708, 0.4467163, 0.26687622, 4943848, -0.76258636, -0.27824545, -0.46857357, 0, 0, 0, -1, -1, 0, 0, 0
4943848, -0.18113708, 0.4467163, 0.26687622, 4943848, -0.28736928, -0.17646384, 0.18000793, 0, 0, 0, -1, -1, 0, 0, 0
4943847, -0.19702148, 0.4760437, 0.2277832, 4943848, -0.28736928, -0.17646384, 0.18000793, 0, 0, 0, -1, -1, 0, 0, 0
4943848, -0.17745972, 0.46992493, 0.21554565, 4943848, -0.1278216, -0.028224945, 0.47358704, 0, 0, 0, -1, -1, 0, 0, 0
4943848, -0.17745972, 0.46992493, 0.21554565, 4943848, 0.12776165, 0.2376833, 0.60776997, 0, 0, 0, -1, -1, 0, 0, 0
4943848, -0.15057373, 0.4418335, 0.18865967, 4943848, 0.1555115, 0.30107474, 0.42909908, 0, 0, 0, -1, -1, 0, 0, 0
5096435, -0.12860107, 0.38197327, 0.15080261, 5096435, 0.059060633, 0.30752826, 0.0473423, 0, 0, 0, -1, -1, 0, 0, 0
6896973, -0.1212616, 0.29644775, 0.12515259, 6896973, -0.060297564, 0.25026226, -0.24037266, 0, 0, 0, -1, -1, 0, 0, 0
5035400, -0.13470459, 0.19993591, 0.1288147, 5035400, -0.02659288, 0.16362, -0.47409534, 0, 0, 0, -1, -1, 0, 0, 0
5035401, -0.1395874, 0.111968994, 0.123916626, 5035401, 0.07497352, 0.033479452, -0.8069868, 0, 0, 0, -1, -1, 0, 0, 0
5035400, -0.14324951, 0.03501892, 0.099487305, 5035400, 0.15950684, -0.0013256073, -0.8633194, 0, 0, 0, -1, -1, 0, 0, 0
5035401, -0.1542511, -0.032180786, 0.06651306, 5035401, 0.00720419, 0.04958844, -1.007534, 0, 0, 0, -1, -1, 0, 0, 0
4943847, -0.17869568, -0.088378906, 0.027420044, 4943847, -0.117300525, 0.06719136, -1.0659266, 0, 0, 0, -1, -1, 0, 0, 0
4943848, -0.19578552, -0.13847351, 5.493164E-4, 4943848, -0.32085723, 0.097988605, -1.1801653, 0, 0, 0, -1, -1, 0, 0, 0
4943847, -0.20922852, -0.23986816, 0.00541687, 4943847, -0.65089226, -0.18559813, 0.2086935, 0, 0, 0, -1, -1, 0, 0, 0
4943848, 0.054656982, -0.90205383, 0.059173584, 4943848, -1.018556, 0.22659802, 0.45499516, 0, 0, 0, -1, -1, 0, 0, 0
4943848, 0.26966858, -1.2526703, 0.095825195, 4943848, -0.20912403, 0.056942463, 1.4929209, 0, 0, 0, -1, -1, 0, 0, 0
4943847, 0.3612976, -1.1060638, 0.07872009, 4943847, 0.5170194, 0.16689444, 1.7262535, 0, 0, 0, -1, -1, 0, 0, 0
4913331, 0.41137695, -0.9472351, 0.06283569, 4913331, 0.81915236, 0.4189024, 1.0107546, 1, 147, 1425, 0, -1, 0, 0, 160385260
4974365, 0.42481995, -0.83239746, 0.02986145, 4974365, 0.54674983, 0.42019606, 0.14459038, 0, 0, 0, 0, -1, 0, 0, 0
4943847, 0.3612976, -0.7297821, -0.0104522705, 4943847, 0.3505533, 0.20500994, -0.36044216, 0, 0, 0, 0, -1, 0, 0, 0
4943848, 0.23669434, -0.55506897, -0.037338257, 4943848, 0.42550868, 0.1147995, -0.54601383, 0, 0, 0, 0, -1, 0, 0, 0
4943848, 0.11695862, -0.34248352, -0.07519531, 4943848, 0.60130745, 0.17180443, -0.6123028, 0, 0, 0, 0, -1, 0, 0, 0
4943847, 0.035095215, -0.15434265, -0.088638306, 4943847, 0.41503465, 0.04121113, -0.7065401, 0, 0, 0, 0, -1, 0, 0, 0
4913330, -0.05039978, 0.052108765, -0.1020813, 4913330, 0.09024065, -0.0427742, -0.53544617, 0, 0, 0, 0, -1, 0, 0, 0
4974366, -0.11515808, 0.21582031, -0.09474182, 4974366, 0.03739778, -0.09766674, -0.18492413, 0, 0, 0, 0, -1, 0, 0, 0
4943847, -0.14569092, 0.28668213, -0.08985901, 4943847, 0.03489227, -0.21645617, 0.042429924, 0, 0, 0, 0, -1, 0, 0, 0
4943848, -0.15057373, 0.2720337, -0.09352112, 4943848, 0.09312101, -0.28706956, 0.13459682, 0, 0, 0, 0, -1, 0, 0, 0
4943848, -0.1395874, 0.19625854, -0.104522705, 4943848, 0.12902693, -0.29628468, 0.18207264, 0, 0, 0, 0, -1, 0, 0, 0
4943847, -0.13226318, 0.13395691, -0.13017273, 4943847, 0.110641144, -0.2763512, 0.13136101, 0, 0, 0, 0, -1, 0, 0, 0
4943848, -0.12980652, 0.13519287, -0.14239502, 4943848, 0.10842632, -0.12520194, -0.08561325, 0, 0, 0, 0, -1, 0, 0, 0
4943848, -0.1530304, 0.19381714, -0.14971924, 4943848, 0.13926496, 0.03845477, -0.31529045, 0, 0, 0, 0, -1, 0, 0, 0
4943847, -0.1530304, 0.19381714, -0.15827942, 4943847, 0.16250259, 0.11944032, -0.5841875, 0, 0, 0, 0, -1, 0, 0, 0
4943848, -0.1860199, 0.26591492, -0.15827942, 4943848, 0.13427646, 0.106377125, -0.725482, 0, 0, 0, 0, -1, 0, 0, 0
7049561, -0.28131104, 0.39785767, -0.17172241, 7049561, -0.08223629, -0.03250599, -0.51733685, 0, 0, 0, 0, -1, 0, 0, 0
5035400, -0.37294006, 0.4076233, -0.17660522, 7049561, -0.08223629, -0.03250599, -0.51733685, 0, 0, 0, 0, -1, 0, 0, 0
5035400, -0.37294006, 0.4076233, -0.17660522, 5035400, -0.4271085, -0.5298145, 0.23144054, 0, 0, 0, 0, -1, 0, 0, 0
5004882, -0.39614868, 0.35264587, -0.14971924, 5035400, -0.4271085, -0.5298145, 0.23144054, 0, 0, 0, 0, -1, 0, 0, 0
5004882, -0.39614868, 0.35264587, -0.14971924, 5004882, -0.20171684, -0.15833545, 1.0581551, 0, 0, 0, 0, -1, 0, 0, 0
4974366, -0.33750916, 0.29034424, -0.12162781, 4974366, -0.1996605, 0.20914555, 1.7683887, 0, 0, 0, 0, -1, 0, 0, 0
4913330, -0.123703, 0.18772888, -0.044662476, 4974366, -0.1996605, 0.20914555, 1.7683887, 0, 0, 0, 0, -1, 0, 0, 0
4974366, 8.8500977E-4, 0.17184448, 0.017623901, 4943847, -0.40744868, 0.40233707, 2.134142, 0, 0, 0, -1, -1, 59344126931162, 0, 0
4913330, 0.119400024, 0.1473999, 0.054275513, 4913330, -0.36211324, 0.40495944, 1.8067322, 0, 0, 0, -1, -1, 0, 0, 0
4974365, 0.19636536, 0.1473999, 0.083602905, 4974366, -0.32000077, 0.11602688, 1.3431301, 0, 0, 0, -1, -1, 0, 0, 0
4974365, 0.19636536, 0.1473999, 0.083602905, 4974365, -0.23057151, -0.8137791, 0.25466347, 0, 0, 0, -1, -1, 0, 0, 0
4943847, 0.25257874, 0.10342407, 0.10559082, 4974365, -0.23057151, -0.8137791, 0.25466347, 0, 0, 0, -1, -1, 0, 0, 0
4943848, 0.2794342, 0.104644775, 0.10437012, 4943848, -0.29938146, -0.9736221, -0.06921768, 0, 0, 0, -1, -1, 0, 0, 0
4943848, 0.2794342, 0.104644775, 0.10437012, 4943848, 0.012811422, -0.62166786, -0.5913763, 0, 0, 0, -1, -1, 0, 0, 0
4943847, 0.27822876, 0.1620636, 0.10437012, 4943848, 0.012811422, -0.62166786, -0.5913763, 0, 0, 0, -1, -1, 0, 0, 0
4943847, 0.27822876, 0.1620636, 0.10437012, 4943847, -0.0704076, -0.4153297, -1.0334358, 0, 0, 0, -1, -1, 0, 0, 0
4943848, 0.25990295, 0.21214294, 0.114151, 4943848, 0.12921107, -0.31650925, -1.3189201, 0, 0, 0, -1, -1, 0, 0, 0
4943848, 0.2268982, 0.2585907, 0.108047485, 4943848, 0.08422676, -0.12775326, -1.5580759, 0, 0, 0, -1, -1, 0, 0, 0
4943847, 0.17803955, 0.28668213, 0.09094238, 4943847, -0.023373455, 0.02278328, -1.6232977, 0, 0, 0, -1, -1, 0, 0, 0
4943848, 0.107177734, 0.26712036, 0.10682678, 4943848, -0.3717662, 0.36969495, -1.3547001, 0, 0, 0, -1, -1, 0, 0, 0
4943848, 0.063201904, 0.33309937, 0.12635803, 4943848, -0.31194913, 0.6947415, -1.5364313, 0, 0, 0, -1, -1, 0, 0, 0
4943847, 0.08518982, 0.5444641, 0.115371704, 4943847, 0.18278751, 0.73537135, -1.3246403, 0, 0, 0, -1, -1, 0, 0, 0
4943848, 0.054656982, 0.65808105, 0.07749939, 4943848, 0.17263833, 0.554476, -0.51758003, 1, 745, 1208, 0, -1, 0, 0, 124276198
4943848, -0.027191162, 0.5713501, -0.04710388, 4943848, 0.17263833, 0.554476, -0.51758003, 0, 0, 0, 0, -1, 0, 0, 0
4974365, -0.011306763, 0.46627808, -0.09841919, 4913330, 0.059693307, 0.37478232, 0.2002039, 0, 0, 0, 0, -1, 0, 0, 0
4974365, -0.011306763, 0.46627808, -0.09841919, 4974365, -0.23678309, 0.03706169, 1.1097622, 0, 0, 0, 0, -1, 0, 0, 0
4943848, 0.004562378, 0.36853027, -0.12651062, 4943848, -0.53002846, -0.024165869, 1.2180204, 0, 0, 0, 0, -1, 0, 0, 0
7049560, 0.042419434, 0.31477356, -0.13017273, 7049560, -0.6815301, -0.06577468, 1.1597824, 0, 0, 0, 0, -1, 0, 0, 0
5035400, 0.08030701, 0.26957703, -0.10940552, 5035400, -0.6221848, -0.16911054, 1.0935287, 0, 0, 0, 0, -1, 0, 0, 0
5035401, 0.107177734, 0.21214294, -0.06298828, 5035401, -0.48054758, -0.25845528, 0.79871845, 0, 0, 0, 0, -1, 0, 0, 0
5035400, 0.096191406, 0.1449585, -0.0031280518, 5035400, -0.37222722, -0.2677784, 0.41340256, 0, 0, 0, 0, -1, 0, 0, 0
5035401, 0.0778656, 0.08998108, 0.059173584, 5035401, -0.13953418, -0.13408709, 0.16352081, 0, 0, 0, 0, -1, 0, 0, 0
4913330, 0.055862427, 0.053329468, 0.08848572, 4913330, 0.08861938, -0.011429787, 0.08477497, 0, 0, 0, 0, -1, 0, 0, 0
4974365, 0.039978027, 0.06555176, 0.10070801, 4974365, 0.28889972, 0.018086195, 0.101530075, 0, 0, 0, 0, -1, 0, 0, 0
4943848, 0.020446777, 0.07531738, 0.092163086, 4943848, 0.23370692, 0.041296005, -0.008826256, 0, 0, 0, 0, -1, 0, 0, 0
4943847, -0.013748169, 0.07531738, 0.0640564, 4943847, -0.03544572, 0.023877382, -0.053850174, 0, 0, 0, 0, -1, 0, 0, 0
4943848, -0.040634155, 0.048446655, 0.0652771, 4943848, -0.31693742, 0.04885316, 0.03894615, 0, 0, 0, 0, -1, 0, 0, 0
4943848, -0.072402954, 0.015457153, 0.07627869, 4943848, -0.55265135, 0.04347396, 0.1035223, 0, 0, 0, 0, -1, 0, 0, 0
4943847, -0.09439087, -0.034622192, 0.079940796, 4943847, -0.6883698, 0.08147836, 0.191535, 0, 0, 0, 0, -1, 0, 0, 0
4943848, -0.10903931, -0.07249451, 0.092163086, 4943848, -0.73434496, 0.18247676, 0.33411026, 0, 0, 0, 0, -1, 0, 0, 0
4943848, -0.1053772, -0.095703125, 0.099487305, 4943848, -0.7059753, 0.28583217, 0.47149372, 0, 0, 0, 0, -1, 0, 0, 0
4943847, -0.093170166, -0.11769104, 0.111709595, 4943847, -0.5495734, 0.28599167, 0.46848392, 0, 0, 0, 0, -1, 0, 0, 0
4943848, -0.056518555, -0.11280823, 0.111709595, 4943848, -0.41702026, 0.15452075, 0.25111198, 0, 0, 0, 0, -1, 0, 0, 0
4943847, -0.02230835, -0.11891174, 0.103149414, 4943847, -0.28183538, 0.08889294, 0.037856102, 0, 0, 0, 0, -1, 0, 0, 0
4943848, 0.0448761, -0.11402893, 0.09460449, 4943848, -0.1487436, -0.09657526, -0.11451244, 0, 0, 0, 0, -1, 0, 0, 0
4943848, 0.107177734, -0.09814453, 0.06895447, 4943848, -0.06634411, -0.25747275, -0.36306286, 0, 0, 0, 0, -1, 0, 0, 0
4943847, 0.14627075, -0.092041016, 0.046951294, 4943847, -0.18122756, -0.2772181, -0.63040733, 0, 0, 0, 0, -1, 0, 0, 0
4943848, 0.16703796, -0.09082031, 0.034744263, 4943848, -0.36992595, -0.20986557, -0.75702477, 0, 0, 0, -1, -1, 59344327320016, 0, 0
4943848, 0.16703796, -0.107910156, 0.039627075, 4943848, -0.47299218, -0.13272142, -0.8290138, 0, 0, 0, -1, -1, 0, 0, 0
4943847, 0.16583252, -0.107910156, 0.054275513, 4943847, -0.41409186, -0.09240651, -0.86111164, 0, 0, 0, -1, -1, 0, 0, 0
4943848, 0.16583252, -0.095703125, 0.054275513, 4943848, -0.26644906, -0.021723032, -0.7880821, 0, 0, 0, -1, -1, 0, 0, 0
4943848, 0.14750671, -0.052947998, 0.046951294, 4943848, -0.09650552, 0.09779215, -0.7383909, 0, 0, 0, -1, -1, 0, 0, 0
4943847, 0.123062134, -0.010177612, 0.038406372, 4943847, 0.10280356, 0.31914735, -0.7035217, 0, 0, 0, -1, -1, 0, 0, 0
4943848, 0.08885193, 0.020339966, 0.054275513, 4943848, 0.06515455, 0.14782977, 0.3975916, 0, 0, 0, -1, -1, 0, 0, 0
5035400, 0.4077301, -0.14944458, 0.08604431, 4943848, 0.06515455, 0.14782977, 0.3975916, 0, 0, 0, -1, -1, 0, 0, 0
5035400, 0.42726135, -0.022399902, 0.114151, 7049561, 0.6612706, 0.5082314, 0.25948048, 0, 0, 0, -1, -1, 0, 0, 0
5035401, 0.3747406, 0.10708618, 0.17401123, 5035400, 0.7589308, 0.09489465, 0.38562775, 1, 244, 1391, 0, -1, 0, 0, 78696094
5004883, 0.28189087, 0.1767273, 0.21434021, 5035400, 0.32697478, -0.10371804, 0.06585693, 0, 0, 0, 0, -1, 0, 0, 0
4974365, 0.19024658, 0.21582031, 0.23022461, 5035401, 0.07051465, -0.2293508, -0.36454678, 0, 0, 0, 0, -1, 0, 0, 0
4943847, 0.12672424, 0.2585907, 0.21678162, 5004883, 0.063697904, -0.26331568, -0.35106182, 0, 0, 0, 0, -1, 0, 0, 0
4943848, 0.08152771, 0.32821655, 0.17524719, 4974365, 0.30069023, -0.26753187, -0.25548172, 0, 0, 0, 0, -1, 0, 0, 0
4943848, 0.08152771, 0.32821655, 0.14103699, 4943847, 0.6020081, -0.032032967, -0.22642708, 0, 0, 0, 0, -1, 0, 0, 0
4943847, 0.055862427, 0.4467163, 0.14103699, 4943848, 0.68924874, -0.067527294, -0.13194561, 0, 0, 0, 0, -1, 0, 0, 0
4943848, 0.036331177, 0.566452, 0.11781311, 4943848, 0.5577671, 0.030356646, -0.07568836, 0, 0, 0, 0, -1, 0, 0, 0
4943848, 0.036331177, 0.566452, 0.11781311, 4943848, -0.12376571, 0.08840799, -0.037560463, 0, 0, 0, 0, -1, 0, 0, 0
4913330, 0.00944519, 0.63365173, 0.10070801, 4913330, -0.4061013, 0.14459682, 0.08562088, 0, 0, 0, 0, -1, 0, 0, 0
4974365, -0.02230835, 0.62875366, 0.09460449, 4974365, -0.61965495, 0.18634081, 0.22511005, 0, 0, 0, 0, -1, 0, 0, 0
4943848, -0.039398193, 0.48825073, 0.095825195, 4974365, -0.61965495, 0.18634081, 0.22511005, 0, 0, 0, 0, -1, 0, 0, 0
4943847, -0.047958374, 0.4601593, 0.099487305, 4943848, -0.7286905, 0.24316335, 0.3988266, 0, 0, 0, 0, -1, 0, 0, 0
4943848, -0.06384277, 0.45039368, 0.11048889, 4943848, -0.61343664, 0.24742413, 0.4776926, 0, 0, 0, 0, -1, 0, 0, 0
4943848, -0.07606506, 0.45159912, 0.13491821, 4943847, -0.37980694, 0.24764752, 0.33734703, 0, 0, 0, 0, -1, 0, 0, 0
4913330, -0.018630981, 0.47727966, 0.12515259, 4943848, -0.35008943, 0.17653012, -0.11070919, 0, 0, 0, 0, -1, 0, 0, 0
5249023, 0.030212402, 0.4235077, 0.079940796, 4943848, -0.52774745, 0.3870678, -1.2308426, 0, 0, 0, 0, -1, 0, 0, 0
4669190, 0.003326416, 0.31721497, 0.032302856, 4913330, 0.25087315, 0.2768104, -0.917964, 1, 605, 1077, 0, 1, 0, 0, 0
4913330, -0.035751343, 0.1473999, -0.031219482, 5249023, 0.005783677, -0.12988687, -0.6590414, 0, 0, 0, 0, 1, 0, 0, 0
4974365, -0.06384277, -0.043167114, -0.07887268, 4669190, 0.06497836, -0.09675431, -0.93183804, 0, 0, 0, -1, 1, 59344470472932, 0, -9020521
4974365, -0.06384277, -0.043167114, -0.07887268, 4974365, -0.5304981, 0.06120348, -0.08674526, 0, 0, 0, -1, 1, 0, 0, 0
4943848, -0.091934204, -0.15068054, -0.06298828, 4943848, -0.6094601, 0.038901567, 0.192523, 0, 0, 0, -1, 1, 0, 0, 0
4974365, -0.11515808, -0.17633057, 0.034744263, 4943848, -0.6094601, 0.038901567, 0.192523, 0, 0, 0, -1, 1, 0, 0, 0
4943848, -0.13348389, -0.15068054, 0.055511475, 4913330, -0.36113828, -0.061736345, 0.37652302, 0, 0, 0, -1, 1, 0, 0, 0
4943848, -0.13348389, -0.15068054, 0.055511475, 4943848, 0.37210727, -0.0106709, 0.35051918, 0, 0, 0, -1, 1, 0, 0, 0
7049560, -0.14692688, -0.10180664, 0.050628662, 7049560, 0.42026204, 0.11152291, 0.4254856, 0, 0, 0, -1, 1, 0, 0, 0
5035401, -0.16889954, -0.039505005, 0.02130127, 5035401, 0.29357076, -0.021769524, 0.35841942, 0, 0, 0, -1, 1, 0, 0, 0
5035400, -0.17869568, 0.005706787, -0.0067749023, 5035400, -0.02369994, -0.04306245, 0.49119282, 0, 0, 0, -1, 1, 0, 0, 0
5035400, -0.15913391, 0.044784546, -0.004333496, 5035400, -0.2372582, -0.058095455, 0.7366457, 0, 0, 0, -1, 1, 0, 0, 0
5035401, -0.14448547, 0.076553345, -0.0018920898, 5035401, -0.42969918, -0.08105278, 0.8169422, 0, 0, 0, -1, 1, 0, 0, 0
4943847, -0.13104248, 0.10342407, 0.010299683, 4943847, -0.44587415, -0.12777972, 0.7624464, 0, 0, 0, -1, 1, 0, 0, 0
4943848, -0.11149597, 0.12663269, 0.022521973, 4943848, -0.3943373, -0.14287972, 0.7500019, 0, 0, 0, -1, 1, 0, 0, 0
4943848, -0.091934204, 0.13885498, 0.044509888, 4943848, -0.2903549, -0.18927908, 0.73411465, 0, 0, 0, -1, 1, 0, 0, 0
4943847, -0.06996155, 0.15351868, 0.051834106, 4943847, -0.17943221, -0.18516278, 0.72281456, 0, 0, 0, -1, 1, 0, 0, 0
4943848, -0.056518555, 0.15840149, 0.060394287, 4943848, -0.11994225, -0.14175415, 0.8357668, 0, 0, 0, -1, 1, 0, 0, 0
4943848, -0.028427124, 0.15596008, 0.05307007, 4943848, -0.1395337, -0.057273865, 0.8480158, 0, 0, 0, -1, 1, 0, 0, 0
4943847, -0.007659912, 0.1620636, 0.067718506, 4943847, -0.21442729, 0.25894046, 0.7512703, 0, 0, 0, -1, 1, 0, 0, 0
4943848, 0.018005371, 0.1473999, 0.06651306, 4943848, -0.23998952, 0.62856436, 0.56653404, 0, 0, 0, -1, 1, 0, 0, 0
4943848, 0.035095215, 0.10952759, 0.056732178, 4943848, 0.21772242, 0.5346997, 0.48066807, 0, 0, 0, -1, 1, 0, 0, 0
4943847, 0.060760498, 0.056991577, 0.0335083, 4943847, 0.37018812, 0.08843255, 0.10351658, 0, 0, 0, -1, 1, 0, 0, 0
4943848, 0.08030701, -0.015060425, -0.0031280518, 4943848, 0.16730964, -0.19378734, -0.3484707, 0, 0, 0, -1, 1, 0, 0, 0
4913330, 0.08641052, -0.08226013, -0.039779663, 4913330, -0.090079844, -0.28840995, -0.55523205, 0, 0, 0, -1, -1, 0, 117616302, 0
4974365, 0.08641052, -0.15312195, -0.0544281, 4974365, -0.16982436, -0.24743152, -0.7391958, 0, 0, 0, -1, -1, 0, 0, 0
4943848, 0.091293335, -0.22154236, -0.055648804, 4943848, -0.081802726, -0.11576247, -0.8421793, 0, 0, 0, -1, -1, 0, 0, 0
4943848, 0.06930542, -0.256958, -0.0544281, 4943848, 0.086137, -0.02097845, -0.90709496, 0, 0, 0, -1, -1, 0, 0, 0
4943847, 0.047317505, -0.256958, -0.06298828, 4943847, 0.164913, 0.035375834, -0.93201923, 0, 0, 0, -1, -1, 0, 0, 0
4943848, 0.047317505, -0.24842834, -0.06298828, 4943848, -0.06301379, -0.18570423, -0.5319681, 0, 0, 0, -1, -1, 0, 0, 0
4943848, 0.11817932, -0.4145813, -0.03366089, 4943848, -0.77248955, -0.12616467, 0.28428745, 0, 0, 0, -1, -1, 0, 0, 0
4913330, 0.3527527, -0.83361816, 0.04206848, 4913330, -0.11162782, 0.15188313, -0.22423553, 0, 0, 0, -1, -1, 0, 0, 0
4974365, 0.41749573, -0.7224579, 0.026184082, 4974365, 0.2949335, -0.05368352, 0.7013321, 1, 215, 1362, 0, -1, 0, 0, 68397396
4943847, 0.49935913, -0.6320343, 0.02986145, 4943847, 0.15518048, -0.06314325, 0.94568825, 0, 0, 0, 0, -1, 0, 0, 0
4943848, 0.5506592, -0.5098572, 0.04574585, 4943848, -0.1985653, -0.042525053, 0.76497555, 0, 0, 0, 0, -1, 0, 0, 0
7019043, 0.49324036, -0.3180542, 0.12025452, 7019043, -0.4590866, 0.2954588, 0.44181442, 0, 0, 0, 0, -1, 0, 0, 0
5401611, 0.4419403, -0.06271362, 0.15692139, 7019043, -0.4590866, 0.2954588, 0.44181442, 0, 0, 0, 0, -1, 0, 0, 0
5401611, 0.4419403, -0.06271362, 0.15692139, 5401611, 0.22992823, -0.06696653, -0.34941387, 0, 0, 0, 0, -1, 0, 0, 0
4638672, 0.41381836, 0.1632843, 0.1483612, 4638672, 0.74070835, -0.30703688, -0.41181374, 0, 0, 0, 0, -1, 0, 0, 0
5065918, 0.39060974, 0.36730957, 0.11903381, 5065918, 0.64228576, -0.2825513, -0.5600319, 0, 0, 0, 0, -1, 0, 0, 0
4943848, 0.36984253, 0.49316406, 0.09460449, 4943848, 0.3461842, -0.32545662, -0.93298244, 0, 0, 0, 0, -1, 0, 0, 0
4943848, 0.36984253, 0.49316406, 0.079940796, 4943848, 0.58864486, -0.53959227, -1.39435, 0, 0, 0, 0, -1, 0, 0, 0
4943847, 0.3429718, 0.5505829, 0.079940796, 4943847, 0.795213, -0.40336752, -1.642601, 0, 0, 0, 0, -1, 0, 0, 0
4943848, 0.27822876, 0.55178833, 0.059173584, 4943848, 0.8313463, -0.18826866, -1.8083706, 0, 0, 0, 0, -1, 0, 0, 0
4943848, 0.20004272, 0.5615692, 0.010299683, 4943848, 0.52189326, 0.07081795, -1.8588285, 0, 0, 0, 0, -1, 0, 0, 0
4943847, 0.11329651, 0.58966064, -0.032440186, 4943847, 0.22443753, 0.24014854, -1.9037933, 0, 0, 0, 0, -1, 0, 0, 0
4943848, -0.123703, 0.62875366, -0.04586792, 4943847, 0.22443753, 0.24014854, -1.9037933, 0, 0, 0, 0, -1, 0, 0, 0
4943847, -0.22879028, 0.6312103, -0.02633667, 4943848, -0.043970823, 0.48868656, -1.7214375, 0, 0, 0, 0, -1, 0, 0, 0
4943848, -0.29229736, 0.60554504, 0.009094238, 4943848, -0.37229484, 0.63362837, -1.2175083, 0, 0, 0, 0, -1, 0, 0, 0
4943847, -0.31674194, 0.5811157, 0.034744263, 4943847, -0.5671475, 0.46296406, -0.47894, 0, 0, 0, 0, -1, 0, 0, 0
4943848, -0.31918335, 0.5615692, 0.04574585, 4943848, -0.65266293, 0.07457447, 0.106134415, 0, 0, 0, 0, -1, 0, 0, 0
4943848, -0.29353333, 0.52001953, 0.067718506, 4943847, -0.6413383, -0.2971115, 0.7544775, 0, 0, 0, 0, -1, 0, 0, 0
4943847, -0.26052856, 0.42230225, 0.115371704, 4943848, -0.30256802, -0.39976645, 1.0326033, 0, 0, 0, 0, -1, 0, 0, 0
4943848, -0.20310974, 0.35020447, 0.14958191, 4943848, -0.18329895, -0.40163374, 1.2295618, 0, 0, 0, 0, -1, 0, 0, 0
4943848, -0.1408081, 0.35876465, 0.1776886, 4943847, -0.28461677, -0.28536987, 1.5384026, 0, 0, 0, 0, -1, 0, 0, 0
4943847, -0.07972717, 0.41618347, 0.20698547, 4943848, -0.2718041, -0.2636695, 1.1429987, 0, 0, 0, 0, -1, 0, 0, 0
4913330, -0.023513794, 0.47239685, 0.21066284, 4943848, -0.044329166, -0.19660711, 0.8023796, 0, 0, 0, 0, -1, 0, 0, 0
4974366, 0.06442261, 0.42230225, 0.17889404, 4943847, 0.07779646, 0.14859962, 0.22382736, 0, 0, 0, 0, -1, 0, 0, 0
4974366, 0.06442261, 0.42230225, 0.17889404, 4974366, 0.085703194, 1.0831132, -0.8074322, 0, 0, 0, 0, -1, 0, 0, 0
4943847, 0.0778656, 0.33799744, 0.11781311, 4943847, -0.045473576, 0.64659166, -0.08640671, 0, 0, 0, 0, -1, 0, 0, 0
4974366, 0.06808472, 0.09976196, 0.023742676, 4943847, -0.045473576, 0.64659166, -0.08640671, 1, 532, 945, 1, -1, 59344766092672, 0, 28129688
4974366, 0.06808472, 0.09976196, 0.023742676, 4974366, -0.46555322, 0.21054125, -0.8514881, 0, 0, 0, 1, -1, 0, 0, 0
7049560, -0.02230835, 0.016693115, -0.004333496, 7049560, -0.48298037, -0.07112837, -0.81982136, 0, 0, 0, 1, -1, 0, 0, 0
5035401, -0.1053772, 0.043548584, -0.019012451, 5035401, -0.613456, -0.2812152, -0.50112057, 0, 0, 0, 1, -1, 0, 0, 0
5035400, -0.16157532, 0.10220337, -0.004333496, 5035400, -0.6691971, -0.3929019, -0.25748825, 0, 0, 0, 1, -1, 0, 0, 0
5035400, -0.21166992, 0.13395691, 0.007858276, 5035400, -0.5121033, -0.39715528, 0.061635017, 0, 0, 0, 1, -1, 0, 0, 0
5035401, -0.23487854, 0.116867065, 0.017623901, 5035401, -0.43440837, -0.30614614, 0.2979164, 0, 0, 0, 1, -1, 0, 0, 0
4943847, -0.23855591, 0.08143616, 0.018859863, 4943847, -0.2771117, -0.2711935, 0.48127937, 0, 0, 0, 1, -1, 0, 0, 0
4943848, -0.21534729, 0.07775879, 0.016418457, 4943848, -0.19920021, -0.31611133, 0.7524376, 0, 0, 0, 1, -1, 0, 0, 0
4943848, -0.1737976, 0.07775879, 0.007858276, 4943848, -0.16516554, -0.31917453, 0.7973137, 0, 0, 0, 1, -1, 0, 0, 0
4943847, -0.12980652, 0.06187439, -6.866455E-4, 4943847, -0.22310644, -0.22788215, 0.86573124, 0, 0, 0, 1, -1, 0, 0, 0
4943848, -0.08338928, 0.041107178, -0.009216309, 4943848, -0.24633288, -0.1628325, 0.8850441, 0, 0, 0, 1, -1, 0, 0, 0
4943848, -0.05039978, 0.015457153, -0.0104522705, 4943848, -0.2923581, -0.047172785, 0.7568674, 0, 0, 0, 1, -1, 0, 0, 0
4943847, -3.2043457E-4, -0.012619019, -0.012893677, 4943847, -0.27411842, 0.21612787, 0.7237778, 0, 0, 0, 1, -1, 0, 0, 0
4943848, 0.015563965, -0.026062012, -0.0031280518, 4943848, -0.16047478, 0.32268023, 0.63230896, 0, 0, 0, 1, -1, 0, 0, 0
4943848, 0.03388977, -0.010177612, -0.0031280518, 4943848, -0.033028066, 0.3303156, 0.527853, 0, 0, 0, 1, -1, 0, 0, 0
4943847, 0.036331177, 0.0105896, -0.01777649, 4943847, 9.0640783E-4, 0.26434517, 0.5129013, 0, 0, 0, 1, -1, 0, 0, 0
4943848, 0.0289917, 0.013031006, -0.028778076, 4943848, -0.0797717, 0.19314313, 0.50834846, 0, 0, 0, 1, -1, 0, 0, 0
4943848, 0.024093628, 0.021575928, -0.022659302, 4943848, -0.18451726, 0.14263988, 0.4953699, 0, 0, 0, 1, -1, 0, 0, 0
4943847, 0.007003784, 0.013031006, -0.03366089, 4943847, -0.31203485, 0.12648416, 0.56829643, 0, 0, 0, 1, -1, 0, 0, 0
4943848, 0.007003784, 0.013031006, -0.049545288, 4943848, -0.37912494, 0.109009266, 0.6539297, 0, 0, 0, 1, -1, 0, 0, 0
4943848, 0.0057678223, -0.0016174316, -0.049545288, 4943848, -0.44268292, 0.12525058, 0.75111675, 0, 0, 0, 1, -1, 0, 0, 0
4943847, -0.005203247, -0.018737793, -0.044662476, 4943847, -0.47552115, 0.13328743, 0.7432661, 0, 0, 0, 1, -1, 0, 0, 0
4943848, 0.020446777, -0.026062012, -0.031219482, 4943848, -0.53899777, 0.31511402, 0.63560486, 0, 0, 0, 1, -1, 0, 0, 0
4943848, 0.031433105, -0.04194641, -0.032440186, 4943848, -0.5391579, 0.6888604, 0.54077625, 0, 0, 0, 1, -1, 0, 0, 0
4943847, 0.050979614, -0.09326172, -0.04222107, 4943847, -0.267251, 0.71514535, 0.50347614, 0, 0, 0, 1, -1, 0, 0, 0
4943848, 0.06564331, -0.13967896, -0.067871094, 4943848, -0.055063605, 0.59962845, 0.38186073, 0, 0, 0, 1, -1, 0, 0, 0
4943848, 0.06564331, -0.16168213, -0.09841919, 4943848, -0.07292509, 0.43624902, 0.1371212, 0, 0, 0, 1, -1, 0, 0, 0
4943847, 0.063201904, -0.1885376, -0.12528992, 4943847, -0.28023142, 0.2778349, -0.12953186, 0, 0, 0, -1, -1, 59344902967724, 0, 0
5035400, -0.029632568, -0.43899536, -0.2010498, 4943847, -0.28023142, 0.2778349, -0.12953186, 0, 0, 0, -1, -1, 0, 0, 0
5035401, -0.09072876, -0.43899536, -0.23890686, 7049561, -0.60929954, 0.00805831, -0.5171871, 0, 0, 0, -1, -1, 0, 0, 0
5035400, -0.1701355, -0.52697754, -0.27923584, 5035400, -0.49158323, -0.03206134, -0.9756956, 0, 0, 0, -1, -1, 0, 0, 0
5035400, -0.1701355, -0.5953827, -0.59199524, 5035401, -0.42604727, -0.059491158, -1.3361073, 0, 0, 0, -1, -1, 0, 0, 0
4943848, -0.25932312, -0.6454773, -0.3134308, 5035400, -0.43922293, 0.005877018, -1.6164427, 0, 0, 0, -1, -1, 0, 0, 0
4943848, -0.35095215, -0.6662445, -0.3317566, 5035400, -0.4465887, 0.007828474, -1.597539, 0, 0, 0, -1, -1, 0, 0, 0
4943847, -0.43891907, -0.66012573, -0.34275818, 4943848, -0.36495978, 0.043573618, -1.5139275, 0, 0, 0, -1, -1, 0, 0, 0
4943848, -0.49754333, -0.6882477, -0.35742188, 4943848, -0.24950188, 0.107933044, -1.3218966, 0, 0, 0, -1, -1, 0, 0, 0
4943848, -0.4376831, -1.153717, -0.34519958, 4943847, -0.077870965, 0.040827513, -1.3408136, 0, 0, 0, -1, -1, 0, 0, 0
4943847, -0.38150024, -1.4090576, -0.34397888, 4943848, -0.0832634, 0.05677867, -2.5710478, 0, 0, 0, -1, -1, 0, 0, 0
4913330, -0.30574036, -1.2929993, -0.3513031, 4943848, -0.53081936, 0.48031783, -0.7432203, 0, 0, 0, -1, -1, 0, 0, 0
4943848, -0.1530304, -1.1365967, -0.3317566, 4943847, -0.021848798, 0.38817143, 0.7704172, 1, 142, 1074, 0, -1, 0, 0, 88501771
4943848, -0.035751343, -0.8971405, -0.30366516, 4913330, -0.11510527, 0.12531018, 1.9651451, 0, 0, 0, 0, -1, 0, 0, 0
4943848, -0.035751343, -0.8971405, -0.30366516, 4943848, -0.13420868, -0.28673792, 2.0154696, 0, 0, 0, 0, -1, 0, 0, 0
4943848, 0.11206055, -0.7713165, -0.22546387, 4943848, -0.13420868, -0.28673792, 2.0154696, 0, 0, 0, 0, -1, 0, 0, 0
4943847, 0.14382935, -0.82873535, -0.19613647, 4974365, -0.0895744, -0.3640647, 1.4300022, 0, 0, 0, 0, -1, 0, 0, 0
4943848, 0.14260864, -0.86294556, -0.17536926, 4943848, 0.009520501, -0.28380466, 0.7404165, 0, 0, 0, 0, -1, 0, 0, 0
4943848, 0.15359497, -0.77864075, -0.1533966, 4943847, -0.14169466, -0.33279014, 0.6131811, 0, 0, 0, 0, -1, 0, 0, 0
4943848, 0.15359497, -0.77864075, -0.1533966, 4943848, 0.059277534, -0.29397845, 0.0031223297, 0, 0, 0, 0, -1, 0, 0, 0
4943848, 0.13282776, -0.44023132, -0.12528992, 4943848, 0.059277534, -0.29397845, 0.0031223297, 0, 0, 0, 0, -1, 0, 0, 0
4943848, 0.13282776, -0.44023132, -0.12528992, 4943848, 0.48030168, -0.47934222, -0.37625217, 0, 0, 0, 0, -1, 0, 0, 0
4943847, 0.024093628, -0.24598694, -0.088638306, 4943848, 0.48030168, -0.47934222, -0.37625217, 0, 0, 0, 0, -1, 0, 0, 0
4943848, -0.06996155, -0.21054077, -0.07887268, 4943848, 0.6467216, -0.40533686, -0.49515057, 0, 0, 0, 0, -1, 0, 0, 0
4943848, -0.06996155, -0.21054077, -0.07887268, 4943848, 1.0318222, -0.0814662, -0.2132864, 0, 0, 0, 0, -1, 0, 0, 0
4913330, -0.15057373, -0.16412354, -0.080078125, 4913330, 0.99602985, 0.049912453, 0.115198135, 0, 0, 0, 0, -1, 0, 0, 0
4943848, -0.2202301, -0.07249451, -0.09963989, 4943848, 0.79839617, 0.042351484, 0.5790682, 0, 0, 0, 0, -1, 0, 0, 0
4974365, -0.2568817, 0.03866577, -0.100860596, 4974365, 0.5256145, -0.014671326, 0.94964504, 0, 0, 0, 0, -1, 0, 0, 0
7049560, -0.23855591, 0.1608429, -0.0849762, 7049560, 0.2846707, -0.09311533, 1.13655, 0, 0, 0, 0, -1, 0, 0, 0
5035401, -0.19702148, 0.29644775, -0.04586792, 5035401, -0.09355232, -0.21847177, 0.96237755, 0, 0, 0, 0, -1, 0, 0, 0
5004883, -0.14324951, 0.38441467, 5.493164E-4, 5004883, -0.45789328, -0.5256424, 0.73684597, 0, 0, 0, 0, -1, 0, 0, 0
5065918, -0.07972717, 0.40641785, 0.039627075, 5065918, -0.47289836, -0.7209101, 0.52834225, 0, 0, 0, 0, -1, 0, 0, 0
5035400, -0.029632568, 0.36608887, 0.07261658, 5035400, -0.23596463, -0.58771205, 0.055495262, 0, 0, 0, 0, -1, 0, 0, 0
4943848, 0.13038635, 0.3892975, 0.07261658, 4943848, -0.09452397, -0.54571176, 0.25698662, 0, 0, 0, 0, -1, 0, 0, 0
4943847, 0.3270874, 0.41740417, 0.048187256, 4943847, 4.927516E-4, 0.15950084, -0.861392, 0, 0, 0, 0, -1, 0, 0, 0
4913330, 0.33564758, 0.25735474, 0.05795288, 4913330, -0.414159, 0.16360307, -0.77833176, 0, 0, 0, -1, -1, 59345077945484, 0, 0
4974366, 0.3307495, 0.06187439, 0.044509888, 4974366, -0.56070495, 0.41690516, -0.9109535, 0, 0, 0, -1, -1, 0, 0, 0
4943847, 0.30265808, -0.12013245, 0.0335083, 4943847, -0.61669385, 0.51088595, -1.2216101, 1, 705, 1201, 0, -1, 0, 0, 43372760
4943848, 0.21592712, -0.20198059, 0.034744263, 4943848, -0.64318943, 0.45938444, -0.96339035, 0, 0, 0, 0, -1, 0, 0, 0
4943847, 0.15971375, -0.18609619, 0.054275513, 4943847, -0.632051, 0.47643518, -0.55404663, 0, 0, 0, 0, -1, 0, 0, 0
4943848, 0.087631226, -0.12013245, 0.08482361, 4943848, -0.34606025, 0.40706778, -0.31646252, 0, 0, 0, 0, -1, 0, 0, 0
4943848, 0.020446777, -0.067596436, 0.08482361, 4943848, 0.12700167, 0.29182363, -0.19472885, 0, 0, 0, 0, -1, 0, 0, 0
4943847, -0.05407715, -0.010177612, 0.07261658, 4943847, 0.47127348, 0.29941583, -0.20975113, 0, 0, 0, 0, -1, 0, 0, 0
4943848, -0.11882019, 0.30256653, 0.043289185, 4943848, 0.6569937, 0.18925714, -0.24028969, 0, 0, 0, 0, -1, 0, 0, 0
4943848, -0.11882019, 0.064315796, 0.017623901, 4943848, 0.62804747, 0.07683277, -0.16837597, 0, 0, 0, 0, -1, 0, 0, 0
4943847, -0.16645813, 0.1473999, 0.017623901, 4943847, 0.5050589, 0.02902937, 0.093720436, 0, 0, 0, 0, -1, 0, 0, 0
4943848, -0.19090271, 0.19381714, -6.866455E-4, 4943848, 0.2459192, -0.03585267, 0.40523243, 0, 0, 0, 0, -1, 0, 0, 0
4943848, -0.20310974, 0.19869995, -0.005569458, 4943848, 0.056024045, -6.034374E-4, 0.6977186, 0, 0, 0, 0, -1, 0, 0, 0
