GYRO_DIFF, GYRO_X, GYRO_Y, GYRO_Z, ACC_DIFF, ACC_X, ACC_Y, ACC_Z, TOUCH_DOWN, TOUCH_X, TOUCH_Y, ID1, ID2 
779235355893670, -0.09098816, 0.24685669, -0.16848755, 779235355893670, -2.6725445, -1.0515437, 1.2917218, 0, 0, 0, -1, -1, 0, 0, 0
4943847, -0.114212036, 0.14912415, -0.09761047, 4943847, -2.1829567, -1.2656159, 1.1098909, 0, 0, 0, -1, -1, 0, 0, 0
4943848, -0.13375854, 0.064819336, -0.04019165, 4943848, -1.8480272, -1.3857603, 1.1272392, 0, 0, 0, -1, -1, 0, 0, 0
4943848, -0.14230347, -0.02923584, -0.019424438, 4943848, -1.49774, -1.484498, 1.1864209, 0, 0, 0, -1, -1, 0, 0, 0
7049560, -0.13986206, -0.08053589, 0.020874023, 7049560, -1.1476718, -1.624093, 1.211915, 0, 0, 0, -1, -1, 0, 0, 0
5035400, -0.15208435, -0.10620117, 0.05630493, 5035400, -0.826105, -1.7391586, 1.2119079, 0, 0, 0, -1, -1, 0, 0, 0
5035401, -0.16551208, -0.12452698, 0.081954956, 5035401, -0.46032962, -1.8203568, 1.2473049, 0, 0, 0, -1, -1, 0, 0, 0
5035400, -0.18263245, -0.16482544, 0.09051514, 5035400, -0.09087324, -1.8800378, 1.3120594, 0, 0, 0, -1, -1, 0, 0, 0
5004883, -0.18751526, -0.19415283, 0.08929443, 5004883, 0.22593078, -2.013318, 1.5888729, 0, 0, 0, -1, -1, 0, 0, 0
4943848, -0.1703949, -0.24304199, 0.07218933, 4943848, 0.12470138, -1.7918153, 1.6945906, 0, 0, 0, -1, -1, 0, 0, 0
4974365, -0.13864136, -0.24424744, 0.05142212, 4974365, -0.41624257, -1.2976894, 1.7901268, 0, 0, 0, -1, -1, 0, 0, 0
4943848, -0.089782715, -0.2137146, 0.030654907, 4943848, -0.8851659, -0.69919395, 1.8769126, 0, 0, 0, -1, -1, 0, 0, 0
4943847, -0.03845215, -0.14405823, 0.0440979, 4943847, -1.0738086, -0.34365368, 1.708406, 0, 0, 0, -1, -1, 0, 0, 0
4913330, 0.0030670166, -0.06098938, 0.057525635, 4913330, -1.0522892, -0.21846056, 1.317183, 0, 0, 0, -1, -1, 0, 0, 0
4943848, 0.03237915, 0.002532959, 0.058746338, 4943848, -0.737103, -0.13314152, 0.96069765, 0, 0, 0, -1, -1, 0, 0, 0
4943848, 0.022598267, 0.040405273, 0.0440979, 4943848, -0.26254943, 0.0287261, 0.67406225, 0, 0, 0, -1, -1, 0, 0, 0
4974365, 0.01651001, 0.020843506, -0.003540039, 4974365, -0.2240262, -0.14833403, 0.51219845, 0, 0, 0, -1, -1, 0, 0, 0
4913330, 0.0030670166, 0.0013275146, -0.054855347, 4913330, -0.307301, -0.28110504, 0.38478422, 0, 0, 0, -1, -1, 0, 0, 0
4974365, -0.028686523, -0.018234253, -0.10372925, 4974365, -0.5857736, -0.20461464, 0.17998695, 0, 0, 0, -1, -1, 0, 0, 0
4913330, -0.044570923, -0.04510498, -0.12083435, 4913330, -1.6763039, 0.519248, -0.18731833, 0, 0, 0, -1, -1, 0, 0, 0
4974366, -0.08854675, -0.075653076, -0.09638977, 4974366, -1.8778746, 0.34024858, -0.15598822, 0, 0, 0, -1, -1, 0, 0, 0
4913330, -0.11177063, -0.086639404, -0.078063965, 4913330, -1.7925632, 0.3868723, -0.21496964, 0, 0, 0, -1, -1, 0, 0, 0
4974365, -0.12275696, -0.06587219, -0.062194824, 4974365, -1.6578461, 0.19104624, 0.24144173, 0, 0, 0, -1, -1, 0, 0, 0
4913330, -0.12641907, -0.026794434, -0.054855347, 4913330, -1.3908072, -0.20075464, 0.562366, 0, 0, 0, -1, -1, 0, 0, 0
4974365, -0.10321045, 0.029403687, -0.045074463, 4974365, -0.967441, -0.4663129, 0.8096881, 0, 0, 0, -1, -1, 0, 0, 0
4913330, -0.06655884, 0.053833008, -0.058517456, 4913330, -0.7009232, -0.75934935, 1.050261, 0, 0, 0, -1, -1, 0, 0, 0
4943848, -0.036010742, 0.07826233, -0.06707764, 4943848, -0.5246335, -1.0257554, 1.388751, 0, 0, 0, -1, -1, 0, 0, 0
4943848, 0.01651001, 0.07826233, -0.08418274, 4943848, -0.30910307, -1.2835155, 1.4641924, 0, 0, 0, -1, -1, 0, 0, 0
4943847, 0.01651001, 0.09170532, -0.08418274, 4943847, -0.14862548, -1.4886732, 1.3950181, 0, 0, 0, -1, -1, 0, 0, 0
4974365, 0.042160034, 0.08804321, -0.10372925, 4974365, -0.1002758, -1.7323937, 1.2490115, 0, 0, 0, -1, -1, 0, 0, 0
4943848, 0.078811646, 0.067276, -0.12083435, 4943848, -0.08561419, -1.9385347, 1.2059307, 0, 0, 0, -1, -1, 0, 0, 0
5065918, 0.13500977, 0.029403687, -0.16113281, 4943848, -0.08561419, -1.9385347, 1.2059307, 0, 0, 0, -1, -1, 0, 0, 0
5035400, 0.13989258, 0.040405273, -0.16725159, 7019043, -0.056453705, -2.2164116, 0.9355383, 0, 0, 0, -1, -1, 0, 0, 0
5035400, 0.13989258, 0.040405273, -0.16725159, 5035400, -0.868662, -1.8906689, 0.4826746, 0, 0, 0, -1, -1, 0, 0, 0
5035400, 0.10934448, 0.17843628, -0.1403656, 5035400, -0.868662, -1.8906689, 0.4826746, 0, 0, 0, -1, -1, 0, 0, 0
5035400, 0.10934448, 0.17843628, -0.1403656, 5035400, -1.7374678, -1.2200198, 0.37418413, 0, 0, 0, -1, -1, 0, 0, 0
4913330, 0.08979797, 0.23588562, -0.10372925, 4913330, -1.9940059, -1.145812, 0.40813112, 0, 0, 0, -1, -1, 0, 0, 0
4974365, 0.08369446, 0.23464966, -0.008422852, 4913330, -1.9940059, -1.145812, 0.40813112, 0, 0, 0, -1, -1, 0, 0, 0
4974365, 0.08369446, 0.23464966, -0.008422852, 4974365, -1.9955567, -1.30831, 0.59943485, 0, 0, 0, -1, -1, 0, 0, 0
4913330, 0.07637024, 0.18089294, 0.036758423, 4913330, -1.696922, -1.2992358, 0.65902615, 0, 0, 0, -1, -1, 0, 0, 0
4943848, 0.07637024, 0.18089294, 0.06607056, 4943848, -1.3007095, -1.2473631, 0.7507014, 0, 0, 0, -1, -1, 0, 0, 0
4943848, 0.082473755, 0.092926025, 0.06607056, 4943848, -0.9236864, -1.1180849, 0.7947717, 0, 0, 0, -1, -1, 0, 0, 0
4974365, 0.12034607, -0.095199585, 0.05630493, 4943848, -0.9236864, -1.1180849, 0.7947717, 0, 0, 0, -1, -1, 0, 0, 0
4974365, 0.12034607, -0.095199585, 0.05630493, 4974365, -0.40025297, -0.76412964, 0.6836486, 0, 0, 0, -1, -1, 0, 0, 0
4943848, 0.13867188, -0.12817383, 0.037979126, 4943848, -0.30694625, -0.59604645, 0.39654827, 0, 0, 0, -1, -1, 0, 0, 0
4913330, 0.1472168, -0.14041138, 0.013534546, 4913330, -0.35366246, -0.47829247, 0.07721233, 0, 0, 0, -1, -1, 0, 0, 0
4943847, 0.119125366, -0.098861694, -0.03286743, 4913330, -0.35366246, -0.47829247, 0.07721233, 0, 0, 0, -1, -1, 0, 0, 0
4943847, 0.119125366, -0.098861694, -0.03286743, 4943847, -0.42427903, -0.4902115, -0.43717384, 0, 0, 0, -1, -1, 0, 0, 0
4943848, 0.08491516, -0.063430786, -0.02798462, 4943848, -0.34737062, -0.5378008, -0.4477954, 0, 0, 0, -1, -1, 0, 0, 0
4943848, 0.054367065, -0.035324097, -0.019424438, 4943848, -0.30753896, -0.6170273, -0.22326612, 0, 0, 0, -1, -1, 0, 0, 0
4943847, 0.017715454, 0.009857178, -0.01210022, 4943847, -0.25273016, -0.7025027, 0.11190939, 0, 0, 0, -1, -1, 0, 0, 0
4943848, -0.023803711, 0.052612305, 0.0025482178, 4943848, -0.27341723, -0.7230549, 0.38223982, 0, 0, 0, -1, -1, 0, 0, 0
4974365, -0.05189514, 0.0978241, 0.013534546, 4974365, -0.24477527, -0.69392157, 0.5101967, 0, 0, 0, -1, -1, 0, 0, 0
4913330, -0.037246704, 0.11125183, 0.033096313, 4974365, -0.24477527, -0.69392157, 0.5101967, 0, 0, 0, -1, -1, 0, 0, 0
4913330, -0.037246704, 0.11125183, 0.033096313, 4913330, -0.43648058, -0.72611237, 0.69723845, 0, 0, 0, -1, -1, 0, 0, 0
4974365, -0.009155273, 0.07337952, 0.052627563, 4974365, -0.6940375, -0.8142004, 0.69931936, 0, 0, 0, -1, -1, 0, 0, 0
4943848, 0.03604126, 0.012298584, 0.08073425, 4943848, -0.92095137, -0.9374089, 0.5728345, 0, 0, 0, -1, -1, 0, 0, 0
4943848, 0.05680847, -0.06587219, 0.13204956, 4943848, -1.0192196, -1.0450716, 0.6231203, 0, 0, 0, -1, -1, 0, 0, 0
7049560, 0.06903076, -0.1342926, 0.19436646, 7049560, -1.1551471, -1.0889106, 0.57961655, 0, 0, 0, -1, -1, 0, 0, 0
5035401, 0.10568237, -0.063430786, 0.25054932, 5035401, -1.0786588, -1.582272, 1.2099304, 0, 0, 0, -1, -1, 0, 0, 0
5035400, 0.33293152, 0.8467407, 0.2591095, 5035400, -0.5662511, -0.83730984, 0.5558114, 0, 0, 0, -1, -1, 0, 0, 0
5004883, 0.5222931, 1.6432953, 0.24934387, 5004883, -0.78815675, -0.16924715, -1.5757809, 0, 0, 0, -1, -1, 0, 0, 0
5065918, 0.4831848, 1.7214813, 0.23954773, 5065918, -1.055948, 0.16092062, -1.7966566, 0, 0, 0, -1, -1, 0, 0, 0
4913330, 0.36958313, 1.4246063, 0.20780945, 4913330, -0.45615384, 1.2133412, -1.7982349, 1, 930, 1211, 0, -1, 0, 0, 543238358965321
4974365, 0.25228882, 0.92492676, 0.1638031, 4974365, 0.003626436, 1.0466361, -2.0355167, 0, 0, 0, 0, -1, 0, 0, 0
4913330, 0.098358154, 0.4179077, 0.10884094, 4913330, 0.32996398, 0.68394375, -1.5147395, 0, 0, 0, 0, -1, 0, 0, 0
4943848, -0.08366394, 9.1552734E-5, 0.048980713, 4943848, 0.2687284, 0.46243525, -0.7532587, 0, 0, 0, 0, -1, 0, 0, 0
4974365, -0.2363739, -0.24058533, -0.007217407, 4974365, 0.072497696, 0.3808074, 0.11359787, 0, 0, 0, 0, -1, 0, 0, 0
4943848, -0.3512268, -0.29190063, -0.058517456, 4943848, -0.17554057, 0.17875576, 0.8573365, 0, 0, 0, 0, -1, 0, 0, 0
4943847, -0.42573547, -0.23448181, -0.05607605, 4943847, -0.18008128, -0.13360214, 1.3750873, 0, 0, 0, 0, -1, 0, 0, 0
4913330, -0.45262146, -0.17826843, -0.046310425, 4913330, -0.039772958, -0.38444424, 1.692153, 0, 0, 0, 0, -1, 0, 0, 0
4943848, -0.4489746, -0.14649963, -0.04386902, 4943848, 0.14684442, -0.56446505, 1.8721018, 0, 0, 0, 0, -1, 0, 0, 0
4974365, -0.40740967, -0.15383911, -0.05607605, 4974365, 0.22219238, -0.6839175, 2.0480337, 0, 0, 0, 0, -1, 0, 0, 0
4943848, -0.3353424, -0.1318512, -0.05241394, 4943848, 0.22160229, -0.77845764, 2.374898, 0, 0, 0, 0, -1, 0, 0, 0
4943848, -0.23881531, -0.086639404, -0.04875183, 4943848, 0.16037881, -0.77177906, 2.3252945, 0, 0, 0, 0, -1, 0, 0, 0
4943847, -0.15208435, -0.047561646, -0.058517456, 4943847, -0.062470376, -0.593842, 2.1321907, 0, 0, 0, 0, -1, 0, 0, 0
4943848, -0.07633972, -0.04510498, -0.038986206, 4943848, -0.293132, -0.46354628, 1.7132211, 0, 0, 0, 0, -1, 0, 0, 0
4943848, -0.034805298, -0.07077026, -0.0023345947, 4943848, -0.4199973, -0.363523, 1.2626882, 0, 0, 0, 0, -1, 0, 0, 0
4913330, -0.020126343, -0.1013031, 0.008651733, 4913330, -0.500828, -0.3271761, 0.7749758, 0, 0, 0, 0, -1, 0, 0, 0
4974365, -0.033569336, -0.1013031, 0.015975952, 4974365, -0.7519062, -0.35832214, 0.47914076, 0, 0, 0, 0, -1, 0, 0, 0
4913330, -0.033569336, -0.15383911, 0.015975952, 4913330, -0.9939816, -0.42668295, 0.43314552, 0, 0, 0, 0, -1, 0, 0, 0
4974365, -0.050689697, -0.21247864, 0.037979126, 4974365, -1.1376244, -0.4607072, 0.4683671, 0, 0, 0, 0, -1, 0, 0, 0
4943848, -0.073898315, -0.27723694, 0.048980713, 4943848, -1.2147999, -0.6361351, 0.6050544, 0, 0, 0, 0, -1, 0, 0, 0
4913330, -0.0690155, -0.28457642, 0.061187744, 4913330, -1.2216918, -0.7020159, 0.6513276, 0, 0, 0, 0, -1, 0, 0, 0
4943848, -0.034805298, -0.14161682, 0.09295654, 4943848, -1.1345501, -0.68100405, 0.48671675, 0, 0, 0, 0, -1, 0, 0, 0
5004883, 0.08125305, 0.28474426, 0.09539795, 4943848, -1.1345501, -0.68100405, 0.48671675, 0, 0, 0, -1, -1, 90240833, 0, 0
5004883, 0.08125305, 0.28474426, 0.09539795, 5004883, -0.7815103, -0.3090067, -0.6455598, 0, 0, 0, -1, -1, 0, 0, 0
5065918, 0.0116119385, 0.09414673, 0.07951355, 5004883, -0.7815103, -0.3090067, -0.6455598, 0, 0, 0, -1, -1, 0, 0, 0
5035400, -0.065338135, -0.02923584, 0.06851196, 5035400, -0.83406126, -0.163558, -0.85670996, 0, 0, 0, -1, -1, 0, 0, 0
5035400, -0.065338135, -0.02923584, 0.06851196, 5035400, -0.9077553, 0.032660007, -0.91033125, 0, 0, 0, -1, -1, 0, 0, 0
4913330, -0.13131714, -0.1306305, 0.07463074, 4913330, -0.53450847, 0.45857668, -0.62008715, 0, 0, 0, -1, -1, 0, 0, 0
4943848, -0.19728088, -0.1306305, 0.08807373, 4943848, -0.5645504, 0.34534216, -0.2202673, 0, 0, 0, -1, -1, 0, 0, 0
4943848, -0.19728088, -0.20515442, 0.09051514, 4943848, -0.62561345, 0.16652584, 0.26480484, 0, 0, 0, -1, -1, 0, 0, 0
4974365, -0.2363739, -0.23080444, 0.09051514, 4974365, -0.5178353, -0.030442238, 0.57702065, 0, 0, 0, -1, -1, 0, 0, 0
4913330, -0.2657013, -0.2454834, 0.097839355, 4913330, -0.31827128, 0.05347824, 1.0126977, 0, 0, 0, -1, -1, 0, 0, 0
4974365, -0.26937866, -0.31144714, 0.09906006, 4974365, -0.20623827, 0.21478939, 1.3944836, 0, 0, 0, -1, -1, 0, 0, 0
4943848, -0.24369812, -0.38841248, 0.097839355, 4943848, -0.24010947, 0.083621025, 1.6009302, 0, 0, 0, -1, -1, 0, 0, 0
4943848, -0.20339966, -0.4091797, 0.101501465, 4943848, -0.16735122, -0.07537842, 1.93151, 0, 0, 0, -1, -1, 0, 0, 0
4913330, -0.14962769, -0.3835144, 0.10394287, 4913330, 0.03867337, -0.1722784, 2.0776587, 0, 0, 0, -1, -1, 0, 0, 0
4943847, -0.10809326, -0.32121277, 0.10028076, 4943847, 0.09475839, -0.27030325, 2.0654125, 0, 0, 0, -1, -1, 0, 0, 0
4943848, -0.061676025, -0.23080444, 0.085632324, 4943848, 0.07911876, -0.35466337, 2.0157156, 0, 0, 0, -1, -1, 0, 0, 0
4974365, 0.070251465, -0.07199097, 0.03919983, 4943848, 0.07911876, -0.35466337, 2.0157156, 0, 0, 0, -1, -1, 0, 0, 0
4974365, 0.070251465, -0.07199097, 0.03919983, 4974365, -0.24644348, -0.50478506, 1.4854012, 0, 0, 0, -1, -1, 0, 0, 0
4943848, 0.1789856, 0.023284912, 0.020874023, 4974365, -0.24644348, -0.50478506, 1.4854012, 0, 0, 0, -1, -1, 0, 0, 0
4943848, 0.1789856, 0.023284912, 0.020874023, 4943848, -0.39986265, -0.5373378, 0.7110567, 0, 0, 0, -1, -1, 0, 0, 0
4943848, 0.21807861, 0.061172485, 0.014770508, 4943848, -0.41168368, -0.5235257, 0.2227149, 0, 0, 0, -1, -1, 0, 0, 0
4913331, 0.22175598, 0.11003113, 0.014770508, 4943848, -0.41168368, -0.5235257, 0.2227149, 0, 0, 0, -1, -1, 0, 0, 0
4913331, 0.22175598, 0.11003113, 0.014770508, 4913331, -0.3458895, -0.39661026, -0.3574543, 0, 0, 0, -1, -1, 0, 0, 0
4974365, 0.2107544, 0.124694824, 0.012329102, 4974365, -0.3447977, -0.37864494, -0.44408846, 0, 0, 0, -1, -1, 0, 0, 0
4943847, 0.1618805, 0.112472534, 0.022094727, 4974365, -0.3447977, -0.37864494, -0.44408846, 0, 0, 0, -1, -1, 0, 0, 0
4943847, 0.1618805, 0.112472534, 0.022094727, 4943847, -0.20101187, -0.32460356, -0.2691269, 0, 0, 0, -1, -1, 0, 0, 0
4943848, 0.14355469, 0.09414673, 0.026977539, 4943848, -0.25779906, -0.28486013, -0.22304964, 0, 0, 0, -1, -1, 0, 0, 0
7080078, 0.1337738, 0.07337952, 0.028213501, 7080078, -0.24855119, -0.24178982, -0.3067522, 0, 0, 0, -1, -1, 0, 0, 0
5035401, 0.110565186, 0.059936523, 0.020874023, 5035401, -0.29972875, -0.19159794, -0.39534426, 0, 0, 0, -1, -1, 0, 0, 0
5035400, 0.08003235, 0.029403687, 0.017211914, 5035400, -0.38177896, -0.15114641, -0.53160524, 0, 0, 0, -1, -1, 0, 0, 0
5035400, 0.045822144, 0.013534546, 0.015975952, 5035400, -0.45933527, -0.07061291, -0.492342, 0, 0, 0, -1, -1, 0, 0, 0
5004883, -0.0079193115, 0.0013275146, 0.015975952, 5004883, -0.5446346, -0.06299925, -0.35186338, 0, 0, 0, -1, -1, 0, 0, 0
4943848, -0.06655884, -0.021896362, 0.014770508, 4943848, -0.5720991, -0.11459398, -0.19465876, 0, 0, 0, -1, -1, 0, 0, 0
4943848, -0.08854675, -0.039001465, 0.018417358, 4943848, -0.5659331, -0.2352395, -0.026638985, 0, 0, 0, -1, -1, 0, 0, 0
4974365, -0.09954834, -0.046325684, 0.022094727, 4974365, -0.50225675, -0.36439657, 0.13404512, 0, 0, 0, -1, -1, 0, 0, 0
4913330, -0.114212036, -0.047561646, 0.025772095, 4913330, -0.40234166, -0.46075296, 0.223732, 0, 0, 0, -1, -1, 0, 0, 0
4974365, -0.11054993, -0.027999878, 0.040420532, 4974365, -0.27233684, -0.45385933, 0.3141551, 0, 0, 0, -1, -1, 0, 0, 0
4943848, -0.11543274, -0.0035705566, 0.04774475, 4943848, -0.096854866, -0.41221952, 0.4372797, 0, 0, 0, -1, -1, 0, 0, 0
4943847, -0.09098816, 0.020843506, 0.046539307, 4943847, 0.018838167, -0.3731141, 0.48106384, 0, 0, 0, -1, -1, 0, 0, 0
4913331, -0.07633972, 0.048950195, 0.040420532, 4913331, 0.0693444, -0.27504873, 0.47072935, 0, 0, 0, -1, -1, 0, 0, 0
4943847, -0.05557251, 0.07337952, 0.034301758, 4943847, 0.07001269, -0.18618107, 0.46211958, 0, 0, 0, -1, -1, 0, 0, 0
4974365, -0.036010742, 0.08560181, 0.029418945, 4974365, -0.0036427975, -0.14781523, 0.4978838, 0, 0, 0, -1, -1, 0, 0, 0
4943848, -6.1035156E-4, 0.1002655, 0.03186035, 4943848, -0.1251142, -0.21774292, 0.44238186, 0, 0, 0, -1, -1, 0, 0, 0
5157471, 0.023834229, 0.1002655, 0.041641235, 5157471, -0.34431157, -0.26008463, 0.3911867, 0, 0, 0, -1, -1, 0, 0, 0
4699707, 0.025039673, 0.089263916, 0.045303345, 4699707, -0.4797051, -0.27279806, 0.45511913, 0, 0, 0, -1, -1, 0, 0, 0
4943847, 0.033599854, 0.089263916, 0.05630493, 4943847, -0.56885195, -0.2598257, 0.59645796, 0, 0, 0, -1, -1, 0, 0, 0
4943848, 0.033599854, 0.0660553, 0.05630493, 4943848, -0.6080723, -0.27343607, 0.7991414, 0, 0, 0, -1, -1, 0, 0, 0
4943848, 0.038482666, 0.047729492, 0.06607056, 4943848, -0.55297416, -0.20473766, 0.84212446, 0, 0, 0, -1, -1, 0, 0, 0
4943847, 0.050704956, 0.029403687, 0.057525635, 4943847, -0.4191473, -0.22476864, 0.8155999, 0, 0, 0, -1, -1, 0, 0, 0
4974366, 0.07147217, 0.0013275146, 0.036758423, 4974366, -0.41974127, -0.25689793, 0.76018524, 0, 0, 0, -1, -1, 0, 0, 0
4943847, 0.098358154, -0.026794434, 0.018417358, 4943847, -0.5078853, -0.33801842, 0.641304, 0, 0, 0, -1, -1, 0, 0, 0
4943848, 0.13500977, -0.043884277, 0.007446289, 4943848, -0.5535513, -0.41723347, 0.45523643, 0, 0, 0, -1, -1, 0, 0, 0
4943848, 0.16677856, -0.03656006, -0.013305664, 4943848, -0.57902676, -0.49593782, 0.20105028, 0, 0, 0, -1, -1, 0, 0, 0
4943847, 0.17654419, -0.026794434, -0.013305664, 4943847, -0.5428602, -0.6003933, 0.022363186, 0, 0, 0, -1, -1, 0, 0, 0
5004883, 0.12889099, 0.012298584, -0.003540039, 4943847, -0.5428602, -0.6003933, 0.022363186, 0, 0, 0, -1, -1, 0, 0, 0
5004883, 0.12889099, 0.012298584, -0.003540039, 5004883, -0.39692953, -0.6187272, -0.30893946, 0, 0, 0, -1, -1, 0, 0, 0
5035400, 0.10568237, -0.08053589, 0.01109314, 5035400, -0.24075624, -0.652534, -0.6849766, 0, 0, 0, -1, -1, 0, 0, 0
5035400, 0.1973114, -0.61198425, 0.022094727, 5035400, 0.33472544, -0.27418518, -1.2644205, 0, 0, 0, -1, -1, 0, 0, 0
4913330, 0.23396301, -0.718277, -0.035308838, 5035400, 0.33472544, -0.27418518, -1.2644205, 0, 0, 0, -1, -1, 0, 0, 0
4943848, 0.25717163, -0.46661377, -0.026748657, 5065918, -0.15152222, -0.13836193, 0.07959652, 0, 0, 0, -1, -1, 0, 0, 0
4943848, 0.26449585, -0.22348022, 0.01965332, 4913330, -0.061082155, -0.03343296, 0.6286888, 1, 124, 1175, 0, -1, 0, 0, 329534271
4943848, 0.26449585, -0.22348022, 0.01965332, 4943848, -0.14547968, -0.067801, 0.66967916, 0, 0, 0, 0, -1, 0, 0, 0
4943847, 0.24372864, -0.10374451, 0.07096863, 4943847, -0.09971964, -0.11514044, 0.7224188, 0, 0, 0, 0, -1, 0, 0, 0
4943848, 0.23275757, -0.07809448, 0.08439636, 4943848, -0.014098316, -0.046566486, 1.2290998, 0, 0, 0, 0, -1, 0, 0, 0
4943848, 0.2425232, -0.0695343, 0.07951355, 4943848, -0.0513632, 0.030782223, 1.6675453, 0, 0, 0, 0, -1, 0, 0, 0
4974365, 0.26817322, 0.04284668, 0.07463074, 4974365, -0.02523908, 0.11145973, 1.7564235, 0, 0, 0, 0, -1, 0, 0, 0
4913330, 0.35002136, 0.22976685, 0.07463074, 4974365, -0.02523908, 0.11145973, 1.7564235, 0, 0, 0, 0, -1, 0, 0, 0
4913330, 0.35002136, 0.22976685, 0.07463074, 4913330, 0.26779595, 0.17287254, 0.89891624, 0, 0, 0, 0, -1, 0, 0, 0
4943847, 0.36834717, 0.21388245, 0.04774475, 4943847, 0.20702684, 0.14990711, 0.39455366, 0, 0, 0, 0, -1, 0, 0, 0
4943848, 0.35736084, 0.17843628, 0.006210327, 4943848, -0.028669953, 0.12803745, 0.07155275, 0, 0, 0, 0, -1, 0, 0, 0
4943848, 0.33659363, 0.16622925, -0.029190063, 4943848, -0.19057494, 0.064136505, -0.20763254, 0, 0, 0, 0, -1, 0, 0, 0
4974365, 0.28771973, 0.16622925, -0.05241394, 4974365, -0.42788267, 0.0275383, -0.48498726, 0, 0, 0, 0, -1, 0, 0, 0
4913330, 0.22784424, 0.17599487, -0.05607605, 4913330, -0.7265048, -0.03606558, -0.665153, 0, 0, 0, 0, -1, 0, 0, 0
4943848, 0.1472168, 0.18943787, -0.042633057, 4943848, -0.9798981, -0.002553463, -0.43923092, 0, 0, 0, 0, -1, 0, 0, 0
4943848, -0.0079193115, 0.15522766, 0.040420532, 4943848, -0.9798981, -0.002553463, -0.43923092, 0, 0, 0, 0, -1, 0, 0, 0
4943848, -0.0079193115, 0.15522766, 0.040420532, 4943848, -1.090881, -0.15561914, 0.27617216, 0, 0, 0, 0, -1, 0, 0, 0
4943847, -0.053131104, 0.121032715, 0.09539795, 4943847, -1.0036185, -0.4362955, 0.6794214, 0, 0, 0, 0, -1, 0, 0, 0
4913330, -0.06655884, 0.12713623, 0.15159607, 4913330, -0.7614615, -0.7164197, 0.8489876, 0, 0, 0, 0, -1, 0, 0, 0
4974365, -0.044570923, 0.22364807, 0.2297821, 4913330, -0.7614615, -0.7164197, 0.8489876, 0, 0, 0, 0, -1, 0, 0, 0
4974365, -0.044570923, 0.22364807, 0.2297821, 4974365, -0.49508268, -0.54700804, 0.7233567, 0, 0, 0, 0, -1, 0, 0, 0
4943848, -0.05557251, 0.25421143, 0.26522827, 4943848, -0.3575705, -0.72128344, 0.54492044, 0, 0, 0, 0, -1, 0, 0, 0
7019043, -0.054336548, 0.25541687, 0.278656, 7019043, -0.34826165, -0.8307166, 0.30932093, 0, 0, 0, 0, -1, 0, 0, 0
5065918, -0.03968811, 0.18089294, 0.28355408, 5065918, -0.23273575, -0.8633137, 0.005356312, 0, 0, 0, 0, -1, 0, 0, 0
5035400, -0.025024414, 0.057495117, 0.2798767, 5035400, -0.045776606, -0.6674895, -0.10763788, 0, 0, 0, -1, -1, 85201250, 0, 0
5035401, 0.0116119385, 0.22608948, 0.2566681, 5035401, -1.0601748, -0.19284296, -2.42599, 0, 0, 0, -1, -1, 0, 0, 0
5035400, 0.021392822, 0.88339233, 0.23954773, 5035400, -0.8510796, 0.5551696, -2.8561864, 0, 0, 0, -1, -1, 0, 0, 0
4913330, -0.056777954, 0.98358154, 0.23466492, 4913330, -1.4518019, -0.07549, -2.0920925, 0, 0, 0, -1, -1, 0, 0, 0
4943848, -0.15208435, 0.753891, 0.2639923, 4943848, -1.2438538, -0.026612759, -1.4442801, 1, 955, 896, 0, -1, 0, 0, 40378021
4943847, -0.22537231, 0.43501282, 0.25178528, 4943847, -0.12600651, 0.38828087, -1.403903, 0, 0, 0, 0, -1, 0, 0, 0
4943848, -0.29379272, 0.17843628, 0.20780945, 4943848, 0.9641281, 0.56490517, -1.3656869, 0, 0, 0, 0, -1, 0, 0, 0
4943848, -0.35977173, -0.0047912598, 0.11982727, 4943848, 1.6091144, 0.47819567, -0.87395, 0, 0, 0, 0, -1, 0, 0, 0
4974365, -0.40864563, -0.10986328, -0.0096588135, 4974365, 1.4359428, 0.40584898, 0.019090176, 0, 0, 0, 0, -1, 0, 0, 0
4943848, -0.39031982, -0.1342926, -0.09761047, 4943848, 0.8579011, 0.2797084, 1.2656226, 0, 0, 0, 0, -1, 0, 0, 0
4913330, -0.34388733, -0.119628906, -0.14404297, 4913330, -0.17145187, 0.062090874, 1.6950974, 0, 0, 0, 0, -1, 0, 0, 0
4943847, -0.2864685, -0.1025238, -0.14892578, 4943847, -0.62051904, -0.31129265, 1.9382911, 0, 0, 0, 0, -1, 0, 0, 0
4943848, -0.22416687, -0.086639404, -0.13427734, 4943848, -0.85065377, -0.4800315, 2.2225347, 0, 0, 0, 0, -1, 0, 0, 0
4943848, -0.15452576, -0.07443237, -0.10494995, 4943848, -0.9278699, -0.50946, 2.4061222, 0, 0, 0, 0, -1, 0, 0, 0
4943847, -0.15452576, -0.07443237, -0.08052063, 4943847, -0.76100767, -0.4766655, 2.5272298, 0, 0, 0, 0, -1, 0, 0, 0
4943848, -0.053131104, -0.086639404, -0.08052063, 4943848, -0.5336426, -0.38924646, 2.682291, 0, 0, 0, 0, -1, 0, 0, 0
4974365, 0.04460144, -0.11352539, -0.054855347, 4974365, -0.15837121, -0.3268876, 2.5900402, 0, 0, 0, 0, -1, 0, 0, 0
4943848, 0.14355469, -0.12817383, -0.04386902, 4943848, 0.07921672, -0.24816561, 2.5223274, 0, 0, 0, 0, -1, 0, 0, 0
4943847, 0.24372864, -0.1184082, -0.05241394, 4943847, 0.22725317, -0.09245205, 2.2438583, 0, 0, 0, 0, -1, 0, 0, 0
4943848, 0.33293152, -0.107406616, -0.06951904, 4943848, 0.13740408, -0.005098343, 1.827806, 0, 0, 0, 0, -1, 0, 0, 0
4943848, 0.3915558, -0.091537476, -0.086624146, 4943848, -0.55663186, -0.06381321, 1.4212022, 0, 0, 0, 0, -1, 0, 0, 0
4943847, 0.4440918, -0.091537476, -0.07684326, 4943847, -0.8443906, 0.26801968, 0.6672921, 0, 0, 0, 0, -1, 0, 0, 0
4943848, 0.4599762, -0.16850281, -0.045074463, 4943848, -1.1554096, 0.45437384, -0.22313881, 0, 0, 0, 0, -1, 0, 0, 0
4943848, 0.4440918, -0.25645447, 0.0013427734, 4943848, -1.1369166, 0.3120165, -1.3086576, 0, 0, 0, 0, -1, 0, 0, 0
4913330, 0.37812805, -0.27113342, 0.026977539, 4913330, -0.9950901, -0.0334692, -1.8983607, 0, 0, 0, 0, -1, 0, 0, 0
5035401, 0.20098877, -0.23936462, -0.010864258, 4913330, -0.9950901, -0.0334692, -1.8983607, 0, 0, 0, -1, -1, 83916302, 0, 0
5065918, 0.11424255, -0.35176086, -0.05241394, 7049560, -0.25665462, -0.06038761, -2.0534391, 0, 0, 0, -1, -1, 0, 0, 0
5035400, 0.07757568, -1.0493622, -0.081726074, 5035401, 0.21092919, -0.054749966, -3.384273, 0, 0, 0, -1, -1, 0, 0, 0
5035400, -0.042129517, -1.2985992, -0.17701721, 5065918, 0.09271565, 0.8077946, -3.75908, 0, 0, 0, -1, -1, 0, 0, 0
5035400, -0.042129517, -1.2985992, -0.17701721, 5035400, -0.14995995, 0.47375727, -2.1268492, 0, 0, 0, -1, -1, 0, 0, 0
4943848, -0.17774963, -1.0041656, -0.19169617, 4943848, -0.22488052, 0.16357231, -0.9882846, 1, 150, 989, 0, -1, 0, 0, 48173230
4943848, -0.32434082, -0.64253235, -0.13182068, 4943848, 0.05471894, -0.17384958, -0.6522503, 0, 0, 0, 0, -1, 0, 0, 0
4913331, -0.51737976, -0.15750122, -0.038986206, 4943848, 0.05471894, -0.17384958, -0.6522503, 0, 0, 0, 0, -1, 0, 0, 0
4943847, -0.5699158, -0.1477356, -0.023101807, 4943847, 0.098965555, -0.40892363, -0.28307152, 0, 0, 0, 0, -1, 0, 0, 0
4943848, -0.5894623, -0.1159668, -0.014541626, 4913331, 0.17888927, -0.5305624, 0.53978443, 0, 0, 0, 0, -1, 0, 0, 0
4943848, -0.5894623, -0.1159668, -0.014541626, 4943848, 0.35232273, -0.55206347, 2.568337, 0, 0, 0, 0, -1, 0, 0, 0
4974366, -0.42208862, 0.04284668, -0.03164673, 4943848, 0.35232273, -0.55206347, 2.568337, 0, 0, 0, 0, -1, 0, 0, 0
4974366, -0.42208862, 0.04284668, -0.03164673, 4974366, 0.016007632, -0.37467527, 2.897726, 0, 0, 0, 0, -1, 0, 0, 0
4913330, -0.29379272, 0.07949829, -0.051193237, 4913330, -0.34052232, -0.29399824, 2.890324, 0, 0, 0, 0, -1, 0, 0, 0
4974365, -0.15086365, 0.0819397, -0.053634644, 4974365, -0.6494016, -0.24183702, 2.695681, 0, 0, 0, 0, -1, 0, 0, 0
4943848, -0.010360718, 0.08682251, -0.037750244, 4943848, -0.853299, -0.26946497, 2.2719889, 0, 0, 0, 0, -1, 0, 0, 0
4943847, 0.09346008, 0.08804321, -0.0096588135, 4943847, -0.889284, -0.23652554, 1.6085286, 0, 0, 0, 0, -1, 0, 0, 0
4943848, 0.17654419, 0.077056885, 0.012329102, 4943848, -0.6663757, -0.21341562, 0.73863554, 0, 0, 0, 0, -1, 0, 0, 0
4974365, 0.2107544, 0.0513916, 0.015975952, 4943848, -0.6663757, -0.21341562, 0.73863554, 0, 0, 0, 0, -1, 0, 0, 0
4943848, 0.17530823, 0.059936523, -0.0096588135, 4913330, -0.42435342, -0.10567188, 0.24559164, 0, 0, 0, 0, -1, 0, 0, 0
4913330, 0.098358154, 0.059936523, -0.038986206, 4974365, -0.23597771, -0.019200802, -0.2798605, 0, 0, 0, 0, -1, 0, 0, 0
4913330, 0.098358154, 0.059936523, -0.038986206, 4913330, -0.11954796, 0.0052757263, -1.0614986, 0, 0, 0, 0, -1, 0, 0, 0
4943848, -0.08732605, 0.07337952, -0.070739746, 4913330, -0.11954796, 0.0052757263, -1.0614986, 0, 0, 0, 0, -1, 0, 0, 0
4943848, -0.08732605, 0.07337952, -0.070739746, 4943848, -0.095767796, 0.13882542, -0.87266684, 0, 0, 0, 0, -1, 0, 0, 0
4913330, -0.18995667, 0.08560181, -0.06340027, 4913330, 0.13610017, 0.37750816, -0.6567941, 0, 0, 0, 0, -1, 0, 0, 0
4974365, -0.25837708, 0.06237793, -0.05241394, 4974365, 0.057434082, 0.22407627, -0.37179375, 0, 0, 0, 0, -1, 0, 0, 0
4943848, -0.3047943, -0.027999878, -0.04019165, 4943848, -0.14404869, -0.16517305, -0.024055004, 0, 0, 0, 0, -1, 0, 0, 0
7019043, -0.3047943, -0.16850281, -0.021865845, 7019043, -0.30547798, -0.46499538, 0.37939358, 0, 0, 0, 0, -1, 0, 0, 0
5035400, -0.27182007, -0.27233887, 0.0025482178, 5035400, -0.37364125, -0.5912013, 0.73149157, 0, 0, 0, -1, -1, 92210834, 0, 0
5035401, -0.22537231, -0.30044556, 0.022094727, 5035401, -0.25791007, -0.68702316, 1.0598044, 0, 0, 0, -1, -1, 0, 0, 0
5035400, -0.17651367, -0.23812866, 0.036758423, 5035400, -0.06826183, -0.80113506, 1.0493317, 0, 0, 0, -1, -1, 0, 0, 0
5065918, -0.10932922, -0.043884277, 0.06486511, 5065918, 0.21348071, -1.0067487, 1.3289442, 0, 0, 0, -1, -1, 0, 0, 0
4943848, 0.1973114, 0.5388489, 0.029418945, 4943848, 0.88791084, -0.7400923, 2.2286768, 0, 0, 0, -1, -1, 0, 0, 0
4943847, 0.36468506, 0.7490082, 0.009887695, 4943847, 0.5565502, 0.40243196, -0.5421982, 0, 0, 0, -1, -1, 0, 0, 0
4913330, 0.35736084, 0.6329346, 0.012329102, 4913330, -0.26992363, 0.31904507, -1.0209217, 0, 0, 0, -1, -1, 0, 0, 0
4943848, 0.32559204, 0.42034912, -0.014541626, 4943848, -0.35944098, 0.4641776, -1.2731595, 1, 810, 1343, 0, -1, 0, 0, 55525729
5218506, 0.24128723, 0.18089294, -0.060958862, 5218506, -0.7620928, 0.46159172, -1.4623594, 0, 0, 0, 0, -1, 0, 0, 0
4669189, 0.11300659, -0.0047912598, -0.070739746, 4669189, -1.139087, 0.16464186, -1.4204149, 0, 0, 0, 0, -1, 0, 0, 0
4943848, -0.054336548, -0.12817383, -0.018218994, 4943848, -1.1142827, -0.13129473, -1.0318837, 0, 0, 0, 0, -1, 0, 0, 0
4974365, -0.16674805, -0.1843872, 0.023330688, 4974365, -0.8009148, -0.2641182, -0.07993412, 0, 0, 0, 0, -1, 0, 0, 0
4913330, -0.22537231, -0.22224426, 0.046539307, 4913330, -0.48436987, -0.2386074, 0.86722136, 0, 0, 0, 0, -1, 0, 0, 0
4974366, -0.22537231, -0.22224426, 0.04774475, 4974366, -0.10863012, -0.1632371, 1.5258579, 0, 0, 0, 0, -1, 0, 0, 0
4943847, -0.2363739, -0.20147705, 0.04774475, 4943847, 0.24608457, -0.10816622, 1.8512177, 0, 0, 0, 0, -1, 0, 0, 0
4943848, -0.19728088, -0.16238403, 0.0440979, 4943848, 0.48446018, -0.10541868, 2.0165815, 0, 0, 0, 0, -1, 0, 0, 0
4943848, -0.13864136, -0.12940979, 0.022094727, 4943848, 0.52012527, -0.2571783, 1.9792752, 0, 0, 0, 0, -1, 0, 0, 0
4943847, -0.07266235, -0.12817383, -0.004776001, 4943847, 0.4799388, -0.38566256, 1.6511402, 0, 0, 0, 0, -1, 0, 0, 0
4913330, -0.017684937, -0.15873718, -0.026748657, 4913330, 0.16978663, -0.34198332, 1.470335, 0, 0, 0, 0, -1, 0, 0, 0
4974366, 0.026275635, -0.17826843, -0.041427612, 4974366, -0.045820028, -0.26732016, 1.2730622, 0, 0, 0, 0, -1, 0, 0, 0
4913330, 0.04460144, -0.16726685, -0.04875183, 4913330, -0.2466748, -0.08933258, 0.8766761, 0, 0, 0, 0, -1, 0, 0, 0
4943847, 0.05680847, -0.13917542, -0.04019165, 4943847, -0.4331462, -0.09482527, 0.5462198, 0, 0, 0, 0, -1, 0, 0, 0
4974365, 0.06781006, -0.09275818, -0.041427612, 4974365, -0.53373134, -0.18386555, 0.3532176, 0, 0, 0, 0, -1, 0, 0, 0
4943848, 0.10568237, -0.040222168, -0.03164673, 4943848, -0.60118484, -0.39684105, 0.11754894, 0, 0, 0, 0, -1, 0, 0, 0
4913330, 0.16798401, 0.009857178, -0.016983032, 4913330, -0.6341068, -0.39485836, -0.5154357, 0, 0, 0, 0, -1, 0, 0, 0
4974365, 0.21195984, 0.024520874, -0.013305664, 4974365, -0.7466743, -0.339571, -1.0244532, 0, 0, 0, 0, -1, 0, 0, 0
5035400, 0.29016113, -0.58999634, 0.007446289, 4974365, -0.7466743, -0.339571, -1.0244532, 0, 0, 0, -1, -1, 77200990, 0, 0
5035400, 0.29016113, -0.58999634, 0.007446289, 5035400, -0.5138552, 0.68209743, -2.1926694, 0, 0, 0, -1, -1, 0, 0, 0
5004883, 0.21807861, -0.96261597, -0.057296753, 5004883, -0.1886194, 0.51030636, -1.7190762, 0, 0, 0, -1, -1, 0, 0, 0
5035401, 0.11178589, -0.59365845, -0.09761047, 5035401, -0.59084564, 0.10144615, -0.77672863, 0, 0, 0, -1, -1, 0, 0, 0
5035400, 0.017715454, -0.23812866, -0.035308838, 5035400, -0.65122056, -0.23475361, -0.92765, 1, 152, 970, 0, -1, 0, 0, 35354115
4943848, -0.101989746, 0.07460022, 0.028213501, 4943848, -0.49267894, -0.36044455, -1.1570935, 0, 0, 0, 0, -1, 0, 0, 0
4943847, -0.21560669, 0.080703735, 0.045303345, 4943847, -0.15619583, -0.3162856, -0.9821162, 0, 0, 0, 0, -1, 0, 0, 0
4974366, -0.3109131, -0.07321167, 0.04286194, 4974366, 0.19074257, -0.22628117, -0.16519022, 0, 0, 0, 0, -1, 0, 0, 0
4943847, -0.36587524, -0.12940979, 0.030654907, 4943847, 0.3750001, -0.1992588, 0.6873317, 0, 0, 0, 0, -1, 0, 0, 0
4943848, -0.37321472, -0.047561646, 0.015975952, 4943848, 0.28740376, -0.17358494, 1.5363102, 0, 0, 0, 0, -1, 0, 0, 0
4943848, -0.3267975, 0.05505371, 0.013534546, 4943848, 0.18207946, -0.19735622, 2.0304632, 0, 0, 0, 0, -1, 0, 0, 0
4943847, -0.24493408, 0.08804321, 0.012329102, 4943847, 0.007879674, -0.15110826, 2.2261362, 0, 0, 0, 0, -1, 0, 0, 0
4943848, -0.15208435, 0.044052124, 0.008651733, 4943848, -0.213296, -0.10460138, 2.1787834, 0, 0, 0, 0, -1, 0, 0, 0
4943847, -0.054336548, -0.027999878, -0.0059814453, 4943847, -0.35746545, -0.016136646, 2.0040154, 0, 0, 0, 0, -1, 0, 0, 0
4943848, 0.040924072, -0.098861694, 1.0681152E-4, 4943848, -0.43157429, 0.07046795, 1.634685, 0, 0, 0, 0, -1, 0, 0, 0
4913330, 0.115448, -0.14529419, 0.012329102, 4913330, -0.41961366, 0.030043602, 1.2352443, 0, 0, 0, 0, -1, 0, 0, 0
4943848, 0.1655426, -0.15261841, 0.017211914, 4943848, -0.37414545, 0.004681587, 0.9918537, 0, 0, 0, 0, -1, 0, 0, 0
4974365, 0.2315216, -0.063430786, 0.018417358, 4943848, -0.37414545, 0.004681587, 0.9918537, 0, 0, 0, 0, -1, 0, 0, 0
4974365, 0.2315216, -0.063430786, 0.018417358, 4974365, -0.04449269, -0.08304691, 0.1872077, 0, 0, 0, 0, -1, 0, 0, 0
4943847, 0.23028564, -0.01335144, 0.017211914, 4943847, -0.014747754, -0.1107893, -0.091068745, 0, 0, 0, 0, -1, 0, 0, 0
4913330, 0.20707703, 0.025726318, 0.022094727, 4913330, -0.1144259, -0.16137171, -0.33650017, 0, 0, 0, 0, -1, 0, 0, 0
4943848, 0.1618805, 0.052612305, 0.025772095, 4943848, -0.20851924, -0.117823124, -0.6509571, 0, 0, 0, 0, -1, 0, 0, 0
4974365, 0.09957886, 0.045288086, 0.030654907, 4974365, -0.3298834, -0.017610073, -0.825593, 0, 0, 0, 0, -1, 0, 0, 0
4943848, 0.021392822, 0.040405273, 0.025772095, 4943848, -0.40147197, -0.043232918, -0.7523279, 0, 0, 0, 0, -1, 0, 0, 0
4943848, -0.061676025, 0.0342865, 0.024536133, 4943848, -0.3806461, -0.01837349, -0.78510666, 0, 0, 0, 0, -1, 0, 0, 0
4913330, -0.114212036, -0.27845764, 0.012329102, 4913330, -0.27020717, 0.03412056, -0.7453337, 0, 0, 0, 0, -1, 0, 0, 0
4943847, -0.114212036, -0.0023498535, -0.30041504, 4943847, -0.04665108, 0.03008604, -0.734797, 0, 0, 0, 0, -1, 0, 0, 0
7049561, -0.19972229, -0.0047912598, -0.037750244, 7049561, 0.108364224, 0.03909731, -0.617589, 0, 0, 0, 0, -1, 0, 0, 0
5035400, -0.22660828, 0.04649353, -0.053634644, 5035400, 0.064942, 0.0067749023, -0.3330493, 0, 0, 0, 0, -1, 0, 0, 0
5065918, -0.23760986, 0.12713623, -0.059753418, 5065918, -0.14795473, -0.18364859, -0.11543703, 0, 0, 0, 0, -1, 0, 0, 0
5035401, -0.24005127, 0.18943787, -0.04875183, 5035401, -0.31683034, -0.31225252, 0.19337034, 0, 0, 0, 0, -1, 0, 0, 0
5035400, -0.23149109, 0.22732544, -0.03286743, 5035400, -0.468934, -0.33108187, 0.56026983, 0, 0, 0, 0, -1, 0, 0, 0
4913330, -0.19116211, 0.2334137, -0.0096588135, 4913330, -0.4894301, -0.28389025, 0.7603922, 0, 0, 0, 0, -1, 0, 0, 0
4974365, -0.13375854, 0.21264648, 0.0025482178, 4974365, -0.48070967, -0.18576908, 0.77244043, 0, 0, 0, 0, -1, 0, 0, 0
4913331, -0.07633972, 0.18333435, 0.007446289, 4913331, -0.36065668, -0.07665968, 0.729506, 0, 0, 0, 0, -1, 0, 0, 0
4974365, -0.03968811, 0.14179993, 0.017211914, 4974365, -0.12244159, 0.09683895, 0.43409634, 0, 0, 0, 0, -1, 0, 0, 0
4913330, -0.023803711, 0.13935852, 0.006210327, 4913330, 0.33360422, 0.43837214, -0.028337955, 0, 0, 0, 0, -1, 0, 0, 0
4943847, -0.033569336, 0.14179993, -0.024307251, 4943847, 0.38645446, 0.4780426, -0.4185028, 0, 0, 0, 0, -1, 0, 0, 0
4974366, -0.07022095, 0.14179993, -0.070739746, 4974366, 0.1699883, 0.4238491, -0.6594801, 0, 0, 0, 0, -1, 0, 0, 0
4943847, -0.07022095, 0.11613464, -0.070739746, 4943847, -0.110786736, 0.31343937, -0.7597375, 0, 0, 0, 0, -1, 0, 0, 0
4913330, -0.114212036, 0.07582092, -0.09516907, 4913330, -0.3770265, 0.23632479, -0.8444061, 0, 0, 0, 0, -1, 0, 0, 0
4974366, -0.15818787, 0.037963867, -0.09883118, 4974366, -0.4747348, 0.06620121, -0.7457099, 0, 0, 0, -1, -1, 164828854, 0, 0
4943847, -0.20704651, 0.0013275146, -0.09761047, 4943847, -0.4792854, -0.072649, -0.67432404, 0, 0, 0, -1, -1, 0, 0, 0
4943848, -0.25349426, -0.024337769, -0.10006714, 4943848, -0.45280477, -0.07808399, -0.36206055, 0, 0, 0, -1, -1, 0, 0, 0
4913330, -0.2828064, -0.026794434, -0.09150696, 4913330, -0.48677254, -0.1439395, -0.056118965, 0, 0, 0, -1, -1, 0, 0, 0
4943848, -0.3157959, -0.016998291, -0.07562256, 4943848, -0.54373956, -0.11386585, 0.37178183, 0, 0, 0, -1, -1, 0, 0, 0
4943847, -0.34144592, 0.0074157715, -0.070739746, 4943847, -0.5756534, -0.11278629, 0.8799648, 0, 0, 0, -1, -1, 0, 0, 0
4943848, -0.3475647, 0.023284912, -0.05607605, 4943848, -0.463665, -0.14813614, 1.1941643, 0, 0, 0, -1, -1, 0, 0, 0
4943848, -0.32312012, 0.041610718, -0.03164673, 4943848, -0.29667416, -0.2120266, 1.3623214, 0, 0, 0, -1, -1, 0, 0, 0
4974365, -0.27790833, 0.068496704, -0.010864258, 4974365, -0.11089784, -0.26250267, 1.4025288, 0, 0, 0, -1, -1, 0, 0, 0
4943848, -0.22660828, 0.11859131, -0.0010986328, 4943848, 0.05412385, -0.31557798, 1.3004193, 0, 0, 0, -1, -1, 0, 0, 0
4913330, -0.16795349, 0.17478943, -0.0010986328, 4913330, 0.09827322, -0.31376028, 1.1070747, 0, 0, 0, -1, -1, 0, 0, 0
4974365, -0.11299133, 0.21876526, -0.008422852, 4974365, 0.055798918, -0.31033278, 0.8206558, 0, 0, 0, -1, -1, 0, 0, 0
4943848, -0.06777954, 0.22120667, -0.0010986328, 4943848, 0.0117881, -0.2044034, 0.5937395, 0, 0, 0, -1, -1, 0, 0, 0
5035400, 0.028717041, 0.14790344, 0.0025482178, 4943848, 0.0117881, -0.2044034, 0.5937395, 0, 0, 0, -1, -1, 0, 0, 0
5035400, 0.028717041, 0.14790344, 0.0025482178, 5035400, -0.2536502, -0.070248604, 0.48341846, 0, 0, 0, -1, -1, 0, 0, 0
5065918, 0.053146362, 0.09048462, 0.008651733, 5065918, -0.31566116, -0.0854578, 0.4332199, 0, 0, 0, -1, -1, 0, 0, 0
5004883, 0.09957886, 0.019638062, 0.029418945, 5065918, -0.31566116, -0.0854578, 0.4332199, 0, 0, 0, -1, -1, 0, 0, 0
4943848, 0.12889099, 0.003768921, 0.046539307, 5035400, -0.35870633, -0.08561134, 0.40976143, 0, 0, 0, -1, -1, 0, 0, 0
4943847, 0.15698242, -0.016998291, 0.04774475, 5004883, -0.34627843, -0.17773533, 0.39701176, 0, 0, 0, -1, -1, 0, 0, 0
4974366, 0.17410278, -0.039001465, 0.04774475, 4943848, -0.2878755, -0.2808504, 0.3205619, 0, 0, 0, -1, -1, 0, 0, 0
4943847, 0.1631012, -0.07077026, 0.03919983, 4943847, -0.21534178, -0.36069822, 0.17532158, 0, 0, 0, -1, -1, 0, 0, 0
4913330, 0.1496582, -0.09275818, 0.026977539, 4974366, -0.20251018, -0.31240273, 0.06692839, 0, 0, 0, -1, -1, 0, 0, 0
4943848, 0.13256836, -0.12084961, 0.034301758, 4943847, -0.23872972, -0.16979599, 0.07880497, 0, 0, 0, -1, -1, 0, 0, 0
4943848, 0.10812378, -0.1342926, 0.026977539, 4913330, -0.29015622, -0.11149216, 0.045675755, 0, 0, 0, -1, -1, 0, 0, 0
4943848, 0.10812378, -0.1342926, 0.026977539, 4943848, -0.2093207, -0.080926895, -0.21940517, 0, 0, 0, -1, -1, 0, 0, 0
4974366, 0.05192566, -0.05000305, 0.018417358, 4943848, -0.2093207, -0.080926895, -0.21940517, 0, 0, 0, -1, -1, 0, 0, 0
4974366, 0.05192566, -0.05000305, 0.018417358, 4974366, 0.05391991, -0.15701962, -0.5830636, 0, 0, 0, -1, -1, 0, 0, 0
4943847, 0.025039673, 0.03060913, 0.015975952, 4943847, 0.13735202, -0.1475029, -0.8413081, 0, 0, 0, -1, -1, 0, 0, 0
4943848, -0.050689697, 0.11491394, 0.009887695, 4943847, 0.13735202, -0.1475029, -0.8413081, 0, 0, 0, -1, -1, 0, 0, 0
4913330, -0.06411743, 0.12591553, 1.0681152E-4, 4943848, 0.046206713, -0.12322569, -0.81323147, 0, 0, 0, -1, -1, 0, 0, 0
4974365, -0.06777954, 0.11003113, 0.012329102, 4943848, -0.054914355, -0.11053324, -0.72829103, 0, 0, 0, -1, -1, 0, 0, 0
4943848, -0.056777954, 0.08682251, 0.006210327, 4913330, -0.15015772, -0.06678295, -0.57955027, 0, 0, 0, -1, -1, 0, 0, 0
4943848, -0.056777954, 0.08682251, 0.006210327, 4943848, -0.32161912, -0.03463459, -0.21381712, 0, 0, 0, -1, -1, 0, 0, 0
4913330, -0.03845215, 0.024520874, 0.015975952, 4943848, -0.32161912, -0.03463459, -0.21381712, 0, 0, 0, -1, -1, 0, 0, 0
4913330, -0.03845215, 0.024520874, 0.015975952, 4913330, -0.32105657, -0.0983758, 0.071942806, 0, 0, 0, -1, -1, 0, 0, 0
4974365, -0.042129517, 0.002532959, 0.005004883, 4913330, -0.32105657, -0.0983758, 0.071942806, 0, 0, 0, -1, -1, 0, 0, 0
4974365, -0.042129517, 0.002532959, 0.005004883, 4974365, -0.3260597, -0.06595802, 0.2543726, 0, 0, 0, -1, -1, 0, 0, 0
4943848, -0.042129517, -0.0121154785, 0.005004883, 4943848, -0.2325564, -0.1313777, 0.37656355, 0, 0, 0, -1, -1, 0, 0, 0
4913330, -0.029922485, -0.0121154785, 0.0013427734, 4913330, -0.17052543, -0.14148998, 0.46386003, 0, 0, 0, -1, -1, 0, 0, 0
5340576, -0.029922485, 9.1552734E-5, 0.005004883, 5340576, -0.18387148, -0.19391632, 0.43333673, 0, 0, 0, -1, -1, 0, 0, 0
6683350, 0.0140686035, 0.045288086, 0.003768921, 6683350, -0.22921938, -0.21531439, 0.4350605, 0, 0, 0, -1, -1, 0, 0, 0
5035400, 0.01651001, 0.053833008, 0.003768921, 5035400, -0.18757358, -0.18671846, 0.39572906, 0, 0, 0, -1, -1, 0, 0, 0
5035400, 0.033599854, 0.033065796, -0.004776001, 5035400, -0.07387084, -0.17943048, 0.39156342, 0, 0, 0, -1, -1, 0, 0, 0
5004883, 0.03604126, 0.006210327, -0.0023345947, 5004883, -0.057031155, -0.052061558, 0.32318544, 0, 0, 0, -1, -1, 0, 0, 0
5035401, 0.034835815, 0.009857178, -0.007217407, 5035401, -0.0945878, 0.020645618, 0.1731925, 0, 0, 0, -1, -1, 0, 0, 0
4943847, 0.027496338, 0.009857178, -0.01576233, 4943847, -0.055864394, 0.05590248, -0.0022187233, 0, 0, 0, -1, -1, 0, 0, 0
4974366, 0.022598267, 0.023284912, -0.029190063, 4974366, -0.07446748, 0.098875046, -0.176548, 0, 0, 0, -1, -1, 0, 0, 0
4943847, -0.005493164, 0.052612305, -0.0206604, 4943847, -0.004253149, 0.08731747, -0.26660538, 0, 0, 0, -1, -1, 0, 0, 0
4943848, -0.02748108, 0.07215881, -0.025543213, 4943848, 0.017508507, 0.073908806, -0.29176235, 0, 0, 0, -1, -1, 0, 0, 0
4943847, -0.02748108, 0.07215881, -0.024307251, 4943847, -0.017265558, 0.0750947, -0.19351101, 0, 0, 0, -1, -1, 0, 0, 0
4913331, -0.04701233, 0.07093811, -0.024307251, 4913331, -0.095160455, 0.038859844, -0.073728085, 0, 0, 0, -1, -1, 0, 0, 0
4943847, -0.05557251, 0.04649353, -0.019424438, 4943847, -0.21836108, -0.025781631, 0.02254343, 0, 0, 0, -1, -1, 0, 0, 0
4943848, -0.04701233, 0.028167725, -0.016983032, 4943848, -0.2862605, -0.084148884, 0.06675005, 0, 0, 0, -1, -1, 0, 0, 0
4943848, -0.03845215, 0.025726318, -0.016983032, 4943848, -0.28878245, -0.15258646, 0.123417854, 0, 0, 0, -1, -1, 0, 0, 0
4974365, -0.045791626, 0.013534546, -0.016983032, 4974365, -0.30165634, -0.171978, 0.16048622, 0, 0, 0, -1, -1, 0, 0, 0
4943847, -0.040908813, 0.003768921, -0.023101807, 4943847, -0.3562362, -0.12079096, 0.17376423, 0, 0, 0, -1, -1, 0, 0, 0
4943848, -0.03845215, -0.024337769, -0.021865845, 4943848, -0.39949715, -0.06410217, 0.12888384, 0, 0, 0, -1, -1, 0, 0, 0
4913330, -0.03968811, -0.05366516, -0.007217407, 4913330, -0.4516044, -0.03211069, 0.07626772, 0, 0, 0, -1, -1, 0, 0, 0
4943848, -0.040908813, -0.06465149, 0.0025482178, 4943848, -0.47490254, -0.0444746, 0.12072325, 0, 0, 0, -1, -1, 0, 0, 0
4974365, -0.05189514, -0.05366516, 0.014770508, 4974365, -0.4412519, -0.060050488, 0.14508533, 0, 0, 0, -1, -1, 0, 0, 0
4913330, -0.03845215, -0.034118652, 0.026977539, 4913330, -0.3625959, -0.083111286, 0.22225189, 0, 0, 0, -1, -1, 0, 0, 0
4974365, -0.033569336, -0.016998291, 0.026977539, 4974365, -0.23493531, -0.13082361, 0.2706895, 0, 0, 0, -1, -1, 0, 0, 0
4943848, -0.016479492, -0.018234253, 0.03553772, 4943848, -0.15790272, -0.116888046, 0.2420435, 0, 0, 0, -1, -1, 0, 0, 0
4943848, 0.004272461, -0.027999878, 0.025772095, 4943848, -0.072509855, -0.11618185, 0.22067833, 0, 0, 0, -1, -1, 0, 0, 0
4913330, 0.018951416, -0.056106567, 0.023330688, 4913330, -0.049393505, -0.10188198, 0.22654963, 0, 0, 0, -1, -1, 0, 0, 0
4943847, 0.022598267, -0.07443237, 0.020874023, 4943847, -0.049488544, -0.042707443, 0.34593296, 0, 0, 0, -1, -1, 0, 0, 0
4974366, 0.029937744, -0.09031677, 0.017211914, 4974366, -0.079357505, -0.02054739, 0.41235256, 0, 0, 0, -1, -1, 0, 0, 0
5035401, 0.06414795, -0.04510498, 0.012329102, 4974366, -0.079357505, -0.02054739, 0.41235256, 0, 0, 0, -1, -1, 0, 0, 0
5035401, 0.06414795, -0.04510498, 0.012329102, 5035401, 0.025299013, -0.087777615, 0.4851203, 0, 0, 0, -1, -1, 0, 0, 0
5035400, 0.08735657, -0.016998291, 0.007446289, 5035400, 0.023297787, -0.066391945, 0.31609344, 0, 0, 0, -1, -1, 0, 0, 0
5004883, 0.098358154, -0.0047912598, 0.01109314, 5004883, -0.09161076, -0.10300064, 0.2246809, 0, 0, 0, -1, -1, 0, 0, 0
5035400, 0.10568237, 0.006210327, 0.008651733, 5035400, -0.14595923, -0.116576195, -0.05902338, 0, 0, 0, -1, -1, 0, 0, 0
4943848, 0.106903076, 0.006210327, 0.009887695, 4943848, -0.17108268, -0.17403555, -0.16030216, 0, 0, 0, -1, -1, 0, 0, 0
4943847, 0.094680786, 0.0074157715, 0.015975952, 4943847, -0.20500907, -0.19709587, -0.22695827, 0, 0, 0, -1, -1, 0, 0, 0
4974366, 0.086135864, 0.029403687, 0.015975952, 4974366, -0.2623542, -0.15730953, -0.20065737, 0, 0, 0, -1, -1, 0, 0, 0
4943847, 0.06903076, 0.041610718, 0.024536133, 4943847, -0.19068584, -0.16176271, -0.240129, 0, 0, 0, -1, -1, 0, 0, 0
4943848, 0.04460144, 0.057495117, 0.041641235, 4943848, -0.17505252, -0.11116171, -0.3765297, 0, 0, 0, -1, -1, 0, 0, 0
4913330, -0.017684937, 0.025726318, 0.07096863, 4943848, -0.17505252, -0.11116171, -0.3765297, 0, 0, 0, -1, -1, 0, 0, 0
4943847, -0.029922485, -0.058547974, 0.07707214, 4943848, -0.23365623, -0.17487383, -0.270154, 0, 0, 0, -1, -1, 0, 0, 0
4943848, -0.02748108, -0.16482544, 0.08073425, 4913330, -0.36502454, -0.20694876, 0.011552811, 0, 0, 0, -1, -1, 0, 0, 0
4943848, -0.02748108, -0.16482544, 0.08073425, 4943848, -0.60903674, -0.37222576, 0.805038, 0, 0, 0, -1, -1, 0, 0, 0
4943848, 0.010391235, -0.22471619, 0.09539795, 4943848, -0.61577785, -0.45458603, 0.9474273, 0, 0, 0, -1, -1, 0, 0, 0
4943848, 0.07269287, -0.18682861, 0.11494446, 4943848, -0.61577785, -0.45458603, 0.9474273, 0, 0, 0, -1, -1, 0, 0, 0
4943848, 0.07269287, -0.18682861, 0.11494446, 4943848, -0.60803795, -0.54783964, 1.5655408, 0, 0, 0, -1, -1, 0, 0, 0
4913330, 0.34880066, 0.2859497, 0.09051514, 4913330, 0.23449251, -0.26295137, 3.176837, 0, 0, 0, -1, -1, 0, 0, 0
4943847, 0.62612915, 0.58283997, 0.040420532, 4943847, 0.2333281, 0.9119816, -0.5901065, 0, 0, 0, -1, -1, 0, 0, 0
4943848, 0.6004791, 0.080703735, 0.058746338, 4943847, 0.2333281, 0.9119816, -0.5901065, 1, 828, 1385, 0, -1, 0, 0, 470738698
4943848, 0.6004791, 0.080703735, 0.058746338, 4943848, -0.2787403, 0.30619812, -1.4433918, 0, 0, 0, 0, -1, 0, 0, 0
4974365, 0.6004791, 0.080703735, 0.030654907, 4974365, -0.027169019, 0.36661673, -1.5502229, 0, 0, 0, 0, -1, 0, 0, 0
4943848, 0.505188, -0.14041138, 0.030654907, 4943848, 0.16680881, 0.2659831, -1.5988984, 0, 0, 0, 0, -1, 0, 0, 0
4913330, 0.3915558, -0.2002716, -0.024307251, 4913330, 0.15465155, 0.03902006, -1.597055, 0, 0, 0, 0, -1, 0, 0, 0
4943847, 0.2449646, -0.17826843, -0.04386902, 4943847, 0.16708663, -0.20886135, -1.1764774, 0, 0, 0, 0, -1, 0, 0, 0
4974366, 0.10324097, -0.14894104, 0.0013427734, 4974366, 0.26380312, -0.23456526, -0.65197515, 0, 0, 0, 0, -1, 0, 0, 0
4943847, -0.016479492, -0.12084961, 0.048980713, 4943847, 0.38454893, -0.20096111, -0.2307682, 0, 0, 0, 0, -1, 0, 0, 0
7049561, -0.13375854, -0.015792847, 0.050186157, 7049561, 0.5392444, -0.03375578, 0.09107447, 0, 0, 0, 0, -1, 0, 0, 0
5004883, -0.14230347, 0.045288086, 0.04286194, 5004883, 0.52534163, 0.081085205, 0.44244957, 0, 0, 0, 0, -1, 0, 0, 0
5065918, -0.13131714, 0.061172485, 0.03553772, 5065918, 0.3534196, 0.13754416, 0.69000053, 0, 0, 0, 0, -1, 0, 0, 0
5035400, -0.12275696, 0.059936523, 0.025772095, 5035400, 0.093978226, 0.23403502, 0.84342, 0, 0, 0, 0, -1, 0, 0, 0
5035400, -0.093444824, 0.048950195, 0.029418945, 5035400, -0.15962216, 0.28698635, 0.96313334, 0, 0, 0, 0, -1, 0, 0, 0
4913330, -0.065338135, 0.04649353, 0.034301758, 4913330, -0.35751203, 0.34128046, 0.943357, 0, 0, 0, 0, -1, 0, 0, 0
4943848, -0.04824829, 0.04649353, 0.052627563, 4943848, -0.4205919, 0.35477543, 1.027803, 0, 0, 0, 0, -1, 0, 0, 0
4974365, -0.04824829, 0.040405273, 0.052627563, 4974365, -0.47099164, 0.22683191, 0.8881707, 0, 0, 0, 0, -1, 0, 0, 0
4943848, -0.044570923, -0.018234253, 0.05508423, 4943848, -0.41956294, 0.18064928, 0.23633432, 0, 0, 0, 0, -1, 0, 0, 0
4943848, -0.065338135, -0.09275818, 0.053863525, 4943848, -0.277288, 0.021614552, 0.009852886, 0, 0, 0, 0, -1, 0, 0, 0
4943847, -0.09954834, -0.16238403, 0.050186157, 4943847, -0.17021957, -0.56499577, 0.23174572, 0, 0, 0, 0, -1, 0, 0, 0
4943848, -0.14353943, -0.14285278, 0.045303345, 4943848, -0.021983176, -0.6964545, 0.48980522, 0, 0, 0, 0, -1, 0, 0, 0
4913330, -0.14108276, -0.0011138916, 0.036758423, 4913330, 0.107865036, -0.6592512, 0.72541046, 0, 0, 0, 0, -1, 0, 0, 0
5004883, -0.09588623, 0.16012573, 0.013534546, 5004883, 0.11124572, -0.5578518, 0.91321087, 0, 0, 0, 0, -1, 0, 0, 0
4943847, -0.017684937, 0.27130127, -0.007217407, 4943847, -0.04406348, -0.4879694, 0.8379631, 0, 0, 0, -1, -1, 76655364, 0, 0
4943848, 0.07513428, 0.30551147, -0.01210022, 4943848, -0.3935954, -0.9554925, 0.7784357, 0, 0, 0, -1, -1, 0, 0, 0
4943848, 0.33903503, -0.0060272217, -0.0010986328, 4943848, -0.011345744, -1.0900345, -0.6356201, 0, 0, 0, -1, -1, 0, 0, 0
4943847, 0.69454956, -0.45437622, -0.010864258, 4943847, -0.47142744, 0.63652134, -0.45255375, 0, 0, 0, -1, -1, 0, 0, 0
4913330, 0.71899414, -0.16726685, -0.09883118, 4913330, -0.14518896, -0.021082878, -0.15736866, 0, 0, 0, -1, -1, 0, 0, 0
4974366, 0.7519684, 0.0843811, -0.08906555, 4974366, -0.22439253, -0.45972967, 0.60363626, 0, 0, 0, -1, -1, 0, 0, 0
4943847, 0.76052856, 0.3177185, -0.059753418, 4943847, -0.5934947, -0.51921606, 0.9347348, 1, 338, 1198, 0, -1, 0, 0, 64043542
4943848, 0.73976135, 0.30307007, -0.010864258, 4943848, -1.1760982, -0.40477467, -0.06300163, 0, 0, 0, 0, -1, 0, 0, 0
4943848, 0.6249237, 0.033065796, 0.06730652, 4943848, -1.4371549, -0.0958457, -1.0242748, 0, 0, 0, 0, -1, 0, 0, 0
4943847, 0.48809814, -0.22471619, 0.15892029, 4943847, -1.0438505, -0.018064976, -1.1063156, 0, 0, 0, 0, -1, 0, 0, 0
4943848, 0.37812805, -0.25401306, 0.21025085, 4943848, -0.15644461, 0.16062784, -0.3007841, 0, 0, 0, 0, -1, 0, 0, 0
4943848, 0.28894043, -0.09642029, 0.20413208, 4943848, 1.0296227, 0.37083864, 0.48522568, 0, 0, 0, 0, -1, 0, 0, 0
4913330, 0.2131958, 0.08682251, 0.15403748, 4913330, 1.9558753, 0.8085146, 0.6678934, 0, 0, 0, 0, -1, 0, 0, 0
5004883, 0.110565186, 0.22120667, 0.008651733, 4913330, 1.9558753, 0.8085146, 0.6678934, 0, 0, 0, 0, -1, 0, 0, 0
5004883, 0.110565186, 0.22120667, 0.008651733, 5004883, 0.78923017, 0.3934064, 0.1778698, 0, 0, 0, 0, -1, 0, 0, 0
5035400, 0.045822144, 0.3336029, -0.038986206, 5004883, 0.78923017, 0.3934064, 0.1778698, 0, 0, 0, 0, -1, 0, 0, 0
5004883, 0.039718628, 0.41545105, -0.007217407, 5065918, 0.07853356, -0.045472145, 0.10513878, 0, 0, 0, 0, -1, 0, 0, 0
4943848, 0.039718628, 0.43377686, 0.023330688, 5035400, -0.37426466, -0.41760254, 0.06210327, 0, 0, 0, 0, -1, 0, 0, 0
4974365, 0.053146362, 0.40568542, 0.0440979, 5004883, -0.6153167, -0.5201168, 0.05358982, 0, 0, 0, 0, -1, 0, 0, 0
4943847, 0.07269287, 0.35438538, 0.07096863, 4943848, -0.84603685, -0.5589094, 0.10130215, 0, 0, 0, 0, -1, 0, 0, 0
4943848, 0.017715454, 0.3018341, 0.113723755, 4974365, -1.123787, -0.5500746, -0.16661501, 0, 0, 0, 0, -1, 0, 0, 0
4943848, 0.017715454, 0.3018341, 0.113723755, 4943848, -1.4082149, -0.5443783, -1.2209516, 0, 0, 0, 0, -1, 0, 0, 0
4943848, -0.0690155, 0.25909424, 0.13204956, 4943848, -1.4634101, -0.7175689, -1.1920109, 0, 0, 0, 0, -1, 0, 0, 0
4943847, -0.13497925, 0.22732544, 0.17236328, 4943847, -1.5645055, -1.0429688, -0.98804474, 0, 0, 0, 0, -1, 0, 0, 0
4943848, -0.1887207, 0.3849182, 0.27375793, 4943847, -1.5645055, -1.0429688, -0.98804474, 0, 0, 0, 0, -1, 0, 0, 0
4943848, -0.1887207, 0.3849182, 0.27375793, 4943848, -2.3453808, -0.15441465, -2.997611, 0, 0, 0, 0, -1, 0, 0, 0
4943848, -0.21195984, 0.5168762, 0.28475952, 4943848, -2.3453808, -0.15441465, -2.997611, 0, 0, 0, 0, -1, 0, 0, 0
4943848, -0.2705841, -0.010910034, 0.22613525, 4943847, -0.964644, 0.5341749, -2.7688265, 0, 0, 0, -1, -1, 69275469, 0, 0
4943848, -0.2705841, -0.010910034, 0.22613525, 4943848, 0.16774291, 0.5883951, -0.8168516, 1, 832, 967, 0, -1, 0, 0, 30073125
4943847, -0.27546692, -0.46905518, 0.13815308, 4943847, 0.57337755, 0.86400795, -1.1264873, 0, 0, 0, 0, -1, 0, 0, 0
4943848, -0.40864563, -0.5814514, 0.024536133, 4943847, 0.57337755, 0.86400795, -1.1264873, 0, 0, 0, 0, -1, 0, 0, 0
4943848, -0.40864563, -0.5814514, 0.024536133, 4943848, 0.6333201, 0.2911067, -0.54951715, 0, 0, 0, 0, -1, 0, 0, 0
4913330, -0.40864563, -0.47514343, 0.024536133, 4913330, 0.79540753, 0.0038170815, 0.4163127, 0, 0, 0, 0, -1, 0, 0, 0
4943847, -0.51737976, -0.23448181, 0.005004883, 4913330, 0.79540753, 0.0038170815, 0.4163127, 0, 0, 0, 0, -1, 0, 0, 0
4943848, -0.49171448, -0.12208557, -0.014541626, 4943848, 0.88063896, -0.05071926, 1.2300649, 0, 0, 0, 0, -1, 0, 0, 0
4974365, -0.42817688, -0.0047912598, -0.034088135, 4943847, 0.8014116, 0.14487791, 1.688818, 0, 0, 0, 0, -1, 0, 0, 0
4974365, -0.42817688, -0.0047912598, -0.034088135, 4974365, 0.6804868, 0.45034504, 2.0994725, 0, 0, 0, 0, -1, 0, 0, 0
4943848, -0.23881531, 0.16990662, -0.07196045, 4974365, 0.6804868, 0.45034504, 2.0994725, 0, 0, 0, 0, -1, 0, 0, 0
4943848, -0.23881531, 0.16990662, -0.07196045, 4943848, 0.061154127, 0.32413435, 2.1733503, 0, 0, 0, 0, -1, 0, 0, 0
4943847, -0.13619995, 0.19067383, -0.078063965, 4943847, -0.2096932, 0.22314978, 2.0704412, 0, 0, 0, 0, -1, 0, 0, 0
7019043, 0.047042847, 0.13813782, -0.06463623, 7019043, -0.37199593, 0.09663153, 2.0338159, 0, 0, 0, 0, -1, 0, 0, 0
5035401, 0.10079956, 0.12225342, -0.04751587, 5035401, -0.52070105, -0.040349007, 2.016509, 0, 0, 0, 0, -1, 0, 0, 0
5065918, 0.13867188, 0.14424133, -0.023101807, 5065918, -0.7063377, -0.12526369, 1.9206028, 0, 0, 0, 0, -1, 0, 0, 0
5035400, 0.1789856, 0.14424133, 0.017211914, 5035400, -1.0193104, 0.10282612, 1.5742769, 0, 0, 0, 0, -1, 0, 0, 0
5035400, 0.1789856, 0.17111206, 0.03919983, 5035400, -1.1119864, 0.21450758, 1.0530581, 0, 0, 0, 0, -1, 0, 0, 0
4943848, 0.20951843, 0.22000122, 0.03919983, 4943848, -1.0122871, 0.18041372, 0.60828066, 0, 0, 0, 0, -1, 0, 0, 0
4943848, 0.2266388, 0.21876526, 0.050186157, 4943848, -0.95956635, 0.06414747, 0.14092112, 0, 0, 0, -1, -1, 67588802, 0, 0
4943847, 0.2449646, 0.14424133, 0.048980713, 4943847, -0.8949083, -0.004535198, -0.2985077, 0, 0, 0, -1, -1, 0, 0, 0
4943848, 0.2632904, -0.0023498535, 0.026977539, 4943848, -0.7642733, -0.034451485, -0.48035526, 0, 0, 0, -1, -1, 0, 0, 0
4943848, 0.2791748, -0.1660614, 0.006210327, 4943848, -0.5426908, 0.040383816, -0.8333683, 0, 0, 0, -1, -1, 0, 0, 0
4913330, 0.27061462, -0.28211975, -0.0023345947, 4913330, -0.33661634, 0.0853343, -1.2476935, 0, 0, 0, -1, -1, 0, 0, 0
4943847, 0.23519897, -0.34687805, -0.008422852, 4943847, -0.124877036, -0.10925341, -1.6915088, 0, 0, 0, -1, -1, 0, 0, 0
4943848, 0.27061462, -0.638855, -0.010864258, 4943848, 0.90658736, -0.58997965, -4.4944797, 0, 0, 0, -1, -1, 0, 0, 0
4943848, 0.3939972, -1.3144836, -0.007217407, 4943848, 0.5669371, 1.1644235, -2.223774, 0, 0, 0, -1, -1, 0, 0, 0
4943847, 0.30238342, -1.0139465, -0.11227417, 4943847, 1.1921349, 0.95513344, -2.566537, 0, 0, 0, -1, -1, 0, 0, 0
4943848, 0.19487, -0.57899475, -0.15748596, 4943848, 0.79165757, 0.572804, -1.9530978, 1, 259, 1119, 0, -1, 0, 0, 68790990
4943848, 0.025039673, -0.16970825, -0.12083435, 4943848, -0.04818642, 0.07442236, -1.1919508, 0, 0, 0, 0, -1, 0, 0, 0
4974365, -0.15818787, 0.012298584, -0.06951904, 4974365, -0.69097525, -0.1842227, -0.9641509, 0, 0, 0, 0, -1, 0, 0, 0
4943848, -0.3133545, -0.07321167, -0.016983032, 4943848, -0.8989815, -0.29396725, -0.78608084, 0, 0, 0, 0, -1, 0, 0, 0
4913330, -0.4465027, -0.24424744, 0.023330688, 4913330, -0.52138287, -0.2674632, 0.22408533, 0, 0, 0, 0, -1, 0, 0, 0
4974365, -0.49415588, -0.32611084, 0.028213501, 4974365, 0.01825279, -0.28616047, 2.4599762, 0, 0, 0, 0, -1, 0, 0, 0
4913330, -0.46362305, -0.24180603, 0.01965332, 4913330, 0.4707836, -0.36374617, 3.2287946, 0, 0, 0, 0, -1, 0, 0, 0
4943848, -0.38664246, -0.063430786, 0.022094727, 4943848, 0.35306913, -0.5833297, 3.3574758, 0, 0, 0, 0, -1, 0, 0, 0
4943847, -0.26203918, 0.101486206, 0.014770508, 4943847, 0.063491285, -0.6347966, 3.0107636, 0, 0, 0, 0, -1, 0, 0, 0
4943848, -0.12641907, 0.17355347, 0.009887695, 4943848, -0.25059772, -0.59397316, 2.7065916, 0, 0, 0, 0, -1, 0, 0, 0
4974365, 0.028717041, 0.16378784, 0.009887695, 4974365, -0.5184829, -0.5577855, 2.1910973, 0, 0, 0, 0, -1, 0, 0, 0
4943848, 0.13745117, 0.13446045, 0.01965332, 4943848, -0.7479378, -0.40701675, 1.5212479, 0, 0, 0, 0, -1, 0, 0, 0
5004883, 0.23519897, 0.06971741, 0.03919983, 4943848, -0.7479378, -0.40701675, 1.5212479, 0, 0, 0, 0, -1, 0, 0, 0
5004883, 0.23519897, 0.06971741, 0.03919983, 5004883, -0.6766374, -0.20598459, -0.5873575, 0, 0, 0, 0, -1, 0, 0, 0
5065918, 0.21195984, 0.07582092, 0.052627563, 5065918, -0.47826192, -0.17972517, -1.4414654, 0, 0, 0, 0, -1, 0, 0, 0
5035401, 0.1472168, 0.07949829, 0.062408447, 5035401, -0.31149632, -0.62328434, -1.8131571, 0, 0, 0, 0, -1, 0, 0, 0
5035400, 0.15454102, 0.32505798, 0.045303345, 5035400, -0.45588714, 0.40340233, -2.8404284, 0, 0, 0, 0, -1, 0, 0, 0
4943848, 0.22540283, 0.55963135, 0.012329102, 4943848, -0.052001625, 0.14174461, -3.5115542, 0, 0, 0, 0, -1, 0, 0, 0
4943847, 0.07513428, 0.20043945, 0.04774475, 4943847, -0.49122477, -0.4473958, -3.198081, 0, 0, 0, 0, -1, 0, 0, 0
4943848, -0.2339325, -0.5301361, 0.005004883, 4943847, -0.49122477, -0.4473958, -3.198081, 1, 752, 1161, 0, 1, 0, 0, 0
4943848, -0.2339325, -0.5301361, 0.005004883, 4943848, 0.10175064, 0.76681614, -2.3332057, 0, 0, 0, 0, 1, 0, 0, 0
4943847, -0.37565613, -0.59976196, -0.041427612, 4943847, -0.07435322, 1.1081042, -2.0276732, 0, 0, 0, -1, 1, 81650782, 0, -8141928
4943848, -0.6371002, -0.3761902, 0.008651733, 4943847, -0.07435322, 1.1081042, -2.0276732, 0, 0, 0, -1, 1, 0, 0, 0
4913330, -0.6652069, -0.27845764, 0.01965332, 4943848, -0.059190005, 0.591403, -1.3376212, 0, 0, 0, -1, 1, 0, 0, 0
4943847, -0.6248932, -0.22836304, 0.007446289, 4943848, 0.2742164, 0.24023628, -0.084813595, 0, 0, 0, -1, 1, 0, 0, 0
4943847, -0.6248932, -0.22836304, 0.007446289, 4943847, 0.5860465, -0.4143529, 1.9744864, 0, 0, 0, -1, 1, 0, 0, 0
4974366, -0.52227783, -0.17826843, -0.021865845, 4974366, 0.6186882, -0.61502886, 2.352232, 0, 0, 0, -1, 1, 0, 0, 0
4943847, -0.39398193, -0.09397888, -0.058517456, 4943847, 0.5158721, -0.6759629, 2.5113692, 0, 0, 0, -1, 1, 0, 0, 0
4943848, -0.39398193, -0.09397888, -0.06951904, 4943848, 0.13983503, -0.59598255, 2.571128, 0, 0, 0, -1, 1, 0, 0, 0
4913330, -0.2546997, -0.0047912598, -0.06951904, 4913330, -0.20772916, -0.39742804, 2.4324813, 0, 0, 0, -1, 1, 0, 0, 0
4943848, -0.12641907, 0.057495117, -0.06340027, 4943848, -0.4316123, -0.15886545, 2.07557, 0, 0, 0, -1, 1, 0, 0, 0
4974365, -0.0079193115, 0.105148315, -0.026748657, 4974365, -0.38002992, 0.07812834, 1.7073555, 0, 0, 0, -1, 1, 0, 0, 0
4943847, 0.08369446, 0.13813782, 0.01109314, 4943847, -0.15012917, 0.20204115, 1.3993616, 0, 0, 0, -1, 1, 0, 0, 0
4943847, 0.18022156, 0.21508789, 0.0440979, 4943847, -0.15012917, 0.20204115, 1.3993616, 0, 0, 0, -1, 1, 0, 0, 0
4943848, 0.18875122, 0.23588562, 0.03186035, 4913331, 0.089122474, 0.23741102, 1.0810428, 0, 0, 0, -1, 1, 0, 0, 0
4943847, 0.19487, 0.22000122, 0.012329102, 4943847, 0.24498963, 0.1606679, 0.74081564, 0, 0, 0, -1, 1, 0, 0, 0
4943847, 0.19487, 0.22000122, 0.012329102, 4943847, -0.30571207, -0.167696, 0.16585588, 0, 0, 0, -1, 1, 0, 0, 0
4943848, 0.19242859, 0.18455505, -0.0023345947, 4943848, -0.36323076, -0.103197575, -0.029784203, 0, 0, 0, -1, 1, 0, 0, 0
4974365, 0.20098877, 0.16134644, 0.0013427734, 4974365, -0.34243742, 0.064296246, -0.20750952, 0, 0, 0, -1, 1, 0, 0, 0
7049561, 0.20587158, 0.16746521, -0.01210022, 7049561, -0.38988715, 0.15185165, -0.52167034, 0, 0, 0, -1, 1, 0, 0, 0
5035400, 0.18510437, 0.18333435, -0.04386902, 5035400, -0.44115308, 0.22114515, -0.8432045, 0, 0, 0, -1, -1, 0, 101252709, 0
5035401, 0.15089417, 0.17355347, -0.06340027, 5035401, -0.58455896, 0.24112225, -0.9938822, 0, 0, 0, -1, -1, 0, 0, 0
5035400, 0.10202026, 0.12957764, -0.06829834, 5035400, -0.6919949, 0.18727255, -1.1297221, 0, 0, 0, -1, -1, 0, 0, 0
5035400, 0.018951416, 0.044052124, -0.07684326, 5035400, -0.74099237, 0.13551855, -1.1880774, 0, 0, 0, -1, -1, 0, 0, 0
4943848, -0.061676025, -0.091537476, -0.102508545, 4943848, -0.6311425, -0.06294918, -1.5609217, 0, 0, 0, -1, -1, 0, 0, 0
4943848, -0.09466553, -0.4629364, -0.08906555, 4943848, 0.24097782, -0.11931515, -5.253438, 0, 0, 0, -1, -1, 0, 0, 0
4913330, -0.12031555, -1.4244385, -0.08906555, 4913330, -0.72692895, 0.5074706, -1.4435163, 0, 0, 0, -1, -1, 0, 0, 0
4974365, -0.17651367, -1.3560181, -0.14526367, 4974365, 0.06205049, 0.51981163, -1.2697926, 0, 0, 0, -1, -1, 0, 0, 0
4943848, -0.22172546, -0.96995544, -0.13182068, 4943848, -0.14264661, 0.39478254, 0.18040323, 1, 96, 951, 0, -1, 0, 0, 84557500
4943847, -0.2498169, -0.48614502, -0.06951904, 4943847, -0.26202825, 0.13568735, 0.44842482, 0, 0, 0, 0, -1, 0, 0, 0
4943848, -0.27426147, -0.22224426, -0.007217407, 4943848, -0.2823637, -0.025501728, 0.82936716, 0, 0, 0, 0, -1, 0, 0, 0
4943848, -0.27426147, -0.27479553, 0.013534546, 4943848, -0.11798218, -0.06560135, 1.3307991, 0, 0, 0, 0, -1, 0, 0, 0
4943847, -0.24369812, -0.4018402, 0.005004883, 4943847, 0.14472964, -0.2015872, 2.0143294, 0, 0, 0, 0, -1, 0, 0, 0
4974366, -0.1703949, -0.42016602, -0.01576233, 4974366, 0.39733243, -0.25947523, 2.365965, 0, 0, 0, 0, -1, 0, 0, 0
4943847, -0.07145691, -0.32977295, -0.03652954, 4943847, 0.47231582, -0.35004473, 2.4398756, 0, 0, 0, 0, -1, 0, 0, 0
4913330, 0.059249878, -0.17582703, -0.049972534, 4913330, 0.31734753, -0.26009464, 2.1512918, 0, 0, 0, 0, -1, 0, 0, 0
4943848, 0.1655426, -0.035324097, -0.06340027, 4943848, 0.12463352, -0.0769124, 1.5597014, 0, 0, 0, 0, -1, 0, 0, 0
4974365, 0.23028564, 0.028167725, -0.093948364, 4974365, 0.03074056, -0.05739355, 0.82301474, 0, 0, 0, 0, -1, 0, 0, 0
4913330, 0.24862671, 0.056289673, -0.09516907, 4913330, -0.04154007, 0.005136013, 0.16118765, 0, 0, 0, 0, -1, 0, 0, 0
4943848, 0.24617004, 0.07460022, -0.09761047, 4943848, -0.13409813, -0.015315533, -0.3482256, 0, 0, 0, 0, -1, 0, 0, 0
4974365, 0.20343018, 0.09902954, -0.08906555, 4974365, -0.26986724, 0.009281158, -0.67272615, 0, 0, 0, 0, -1, 0, 0, 0
4943848, 0.13867188, 0.13446045, -0.08418274, 4943848, -0.3308692, 0.039317608, -0.7976804, 0, 0, 0, 0, -1, 0, 0, 0
4943848, 0.08125305, 0.15890503, -0.081726074, 4943848, -0.33764535, 0.024521828, -0.8948388, 0, 0, 0, 0, -1, 0, 0, 0
4943847, 0.023834229, 0.16867065, -0.07684326, 4943847, -0.35429633, -0.012936592, -0.93817425, 0, 0, 0, 0, -1, 0, 0, 0
4943848, -0.04824829, 0.15766907, -0.082962036, 4943848, -0.31534648, 0.03133726, -0.8466191, 0, 0, 0, 0, -1, 0, 0, 0
4943848, -0.08732605, 0.12225342, -0.07684326, 4943848, -0.19897191, 0.0979085, -0.92597914, 0, 0, 0, 0, -1, 0, 0, 0
5065918, -0.1862793, 0.04284668, -0.06829834, 4943848, -0.19897191, 0.0979085, -0.92597914, 0, 0, 0, 0, -1, 0, 0, 0
5065918, -0.1862793, 0.04284668, -0.06829834, 5065918, -0.5039828, 0.05896187, -0.061825752, 0, 0, 0, 0, -1, 0, 0, 0
5035401, -0.20948792, 0.0049743652, -0.035308838, 5035401, -0.52014756, -0.062277794, 0.4936633, 0, 0, 0, 0, -1, 0, 0, 0
5035400, -0.22660828, -0.0047912598, -0.0010986328, 5035400, -0.43867576, -0.12303591, 0.73581266, 0, 0, 0, 0, -1, 0, 0, 0
5035401, -0.23272705, 0.017196655, 0.03919983, 5035401, -0.32388473, -0.28707027, 0.8282428, 0, 0, 0, 0, -1, 0, 0, 0
4974365, -0.21928406, 0.17234802, 0.097839355, 5035401, -0.32388473, -0.28707027, 0.8282428, 0, 0, 0, 0, -1, 0, 0, 0
4943848, -0.18383789, 0.22000122, 0.117385864, 4913330, -0.17839958, -0.4246502, 0.7868595, 0, 0, 0, 0, -1, 0, 0, 0
4943848, -0.18383789, 0.22000122, 0.117385864, 4943848, 0.32474047, -0.67514753, 1.0133672, 0, 0, 0, 0, -1, 0, 0, 0
4943847, -0.012802124, 0.52786255, 0.110061646, 4943847, 1.002589, -0.46202755, 0.88256216, 0, 0, 0, 0, -1, 0, 0, 0
4913330, 0.28771973, 1.0324402, 0.05630493, 4913330, 1.0272095, 0.3221054, -1.5905638, 0, 0, 0, 0, -1, 0, 0, 0
4974366, 0.34757996, 0.80519104, 0.05142212, 4974366, 0.31150857, 0.08191872, -1.7485147, 0, 0, 0, 0, -1, 0, 0, 0
4943847, 0.313385, 0.3690338, 0.024536133, 4943847, 0.017189473, 0.41825247, -1.6321645, 1, 877, 1272, 1, -1, 103742500, 0, 21712240
4943848, 0.25108337, 0.0342865, -0.034088135, 4943848, -0.41358513, 0.88990116, -1.8686652, 0, 0, 0, 1, -1, 0, 0, 0
4943848, 0.15209961, -0.27845764, -0.06463623, 4943848, -0.88667417, 0.85433054, -2.0913806, 0, 0, 0, 1, -1, 0, 0, 0
4943847, -0.0018157959, -0.075653076, -0.038986206, 4943848, -0.88667417, 0.85433054, -2.0913806, 0, 0, 0, 1, -1, 0, 0, 0
4943847, -0.0018157959, -0.075653076, -0.038986206, 4943847, -0.7956568, -0.10505247, -1.539844, 0, 0, 0, 1, -1, 0, 0, 0
4943848, -0.30847168, -0.12573242, 0.06607056, 4943847, -0.7956568, -0.10505247, -1.539844, 0, 0, 0, 1, -1, 0, 0, 0
4943848, -0.3829956, -0.1330719, 0.08683777, 4974365, -0.57898843, -0.30330706, -0.47923803, 0, 0, 0, 1, -1, 0, 0, 0
4943847, -0.36221313, -0.09275818, 0.08929443, 4943848, -0.37580064, -0.41601086, 0.4721961, 0, 0, 0, 1, -1, 0, 0, 0
4943847, -0.36221313, -0.09275818, 0.08929443, 4943847, 0.2590809, -0.43200493, 1.6711507, 0, 0, 0, 1, -1, 0, 0, 0
4913331, -0.32434082, -0.024337769, 0.085632324, 4913331, 0.53613114, -0.46061707, 1.8291283, 0, 0, 0, 1, -1, 0, 0, 0
4974365, -0.26449585, 0.03060913, 0.07585144, 4974365, 0.5307412, -0.3895707, 1.9100752, 0, 0, 0, 1, -1, 0, 0, 0
4943847, -0.20948792, 0.041610718, 0.06486511, 4943847, 0.31978023, -0.17803621, 1.7474709, 0, 0, 0, 1, -1, 0, 0, 0
4791260, -0.10932922, 0.0049743652, 0.04286194, 4943847, 0.31978023, -0.17803621, 1.7474709, 0, 0, 0, 1, -1, 0, 0, 0
4791260, -0.10932922, 0.0049743652, 0.04286194, 4791260, -0.11070126, 0.1714592, 1.3727098, 0, 0, 0, 1, -1, 0, 0, 0
4913330, -0.06655884, 0.024520874, 0.048980713, 4913330, -0.11226359, 0.07154226, 1.3430805, 0, 0, 0, 1, -1, 0, 0, 0
4943847, -0.014038086, 0.068496704, 0.046539307, 4943847, -0.0660184, -0.116821766, 1.3563848, 0, 0, 0, 1, -1, 0, 0, 0
7049561, 0.06781006, 0.15158081, 0.046539307, 7049561, -0.12524125, -0.066520214, 1.0849986, 0, 0, 0, 1, -1, 0, 0, 0
5035400, 0.14477539, 0.25421143, 0.033096313, 5035400, -0.17178297, -0.025160313, 0.6431408, 0, 0, 0, 1, -1, 0, 0, 0
5065918, 0.22419739, 0.32261658, 0.025772095, 5065918, -0.24396494, 0.015705109, -0.063455105, 0, 0, 0, -1, -1, 68482084, 0, 0
5035401, 0.27305603, 0.30551147, 0.006210327, 5035401, -0.3743437, 0.0329175, -0.62622356, 0, 0, 0, -1, -1, 0, 0, 0
5035400, 0.274292, 0.21144104, -0.008422852, 5035400, -0.5254508, 0.09179115, -1.1390595, 0, 0, 0, -1, -1, 0, 0, 0
4943848, 0.25717163, 0.07093811, -0.035308838, 4943848, -0.7330245, 0.18849564, -1.3212857, 0, 0, 0, -1, -1, 0, 0, 0
4943847, 0.2131958, -0.075653076, -0.037750244, 4943847, -0.8853564, 0.17200994, -1.3842521, 0, 0, 0, -1, -1, 0, 0, 0
4943848, 0.18266296, -0.20639038, -0.010864258, 4943848, -0.6785345, -0.42596865, -2.449236, 0, 0, 0, -1, -1, 0, 0, 0
4943848, 0.20219421, -0.848999, 0.03186035, 4943848, 0.39221242, 0.30205154, -3.9300404, 0, 0, 0, -1, -1, 0, 0, 0
4913330, 0.15454102, -1.015152, -0.01576233, 4913330, -0.19230857, 0.751461, -0.73137665, 0, 0, 0, -1, -1, 0, 0, 0
4943848, 0.11178589, -0.62176514, -0.051193237, 4943848, 0.13113347, 0.4590912, -0.1999197, 0, 0, 0, -1, -1, 0, 0, 0
4974365, 0.06903076, -0.26745605, -0.018218994, 4974365, -0.8058891, -0.119992256, 0.24417257, 0, 0, 0, -1, -1, 0, 0, 0
4943847, 0.004272461, -0.06832886, 0.04774475, 4943847, -1.0016727, -0.58357286, 0.18462563, 1, 150, 1015, 0, -1, 0, 0, 67996406
4913330, -0.060455322, -0.1660614, 0.10394287, 4913330, -0.7179642, -0.58100176, 0.19716263, 0, 0, 0, 0, -1, 0, 0, 0
4943848, -0.11054993, -0.36154175, 0.11494446, 4943848, -0.17126666, -0.32200813, 0.6935439, 0, 0, 0, 0, -1, 0, 0, 0
4943848, -0.12519836, -0.4446106, 0.101501465, 4943848, 0.3416866, -0.062080383, 1.5380092, 0, 0, 0, 0, -1, 0, 0, 0
4943847, -0.10076904, -0.36398315, 0.081954956, 4943847, 0.77914464, 0.2460761, 2.0826373, 0, 0, 0, 0, -1, 0, 0, 0
4974366, -0.03968811, -0.23936462, 0.05142212, 4974366, 1.0450919, 0.5922866, 2.5472436, 0, 0, 0, 0, -1, 0, 0, 0
4943847, 0.059249878, -0.22224426, 0.022094727, 4943847, 0.41666722, 0.39529848, 2.9814959, 0, 0, 0, 0, -1, 0, 0, 0
4943848, 0.16065979, -0.15383911, 0.01965332, 4943848, -0.030798629, 0.03939724, 2.205121, 0, 0, 0, 0, -1, 0, 0, 0
4943848, 0.24128723, 0.0049743652, 0.029418945, 4943848, -0.075426474, -0.40300798, 1.8487844, 0, 0, 0, 0, -1, 0, 0, 0
4943847, 0.32803345, 0.15766907, 0.05996704, 4943847, -0.3743565, -0.8237634, 1.3869829, 0, 0, 0, 0, -1, 0, 0, 0
4913330, 0.39889526, 0.30429077, 0.09051514, 4913330, -0.42977902, -1.0463171, 0.9052787, 0, 0, 0, 0, -1, 0, 0, 0
4974366, 0.4465332, 0.3788147, 0.10884094, 4974366, -0.3379764, -0.90457106, 0.6204891, 0, 0, 0, 0, -1, 0, 0, 0
4943847, 0.4575348, 0.40324402, 0.12594604, 4943847, -0.17820117, -0.6992731, 0.39264536, 0, 0, 0, 0, -1, 0, 0, 0
4913330, 0.45144653, 0.40324402, 0.12838745, 4913330, -0.1107056, -0.47773647, -0.097342014, 0, 0, 0, 0, -1, 0, 0, 0
4974366, 0.45144653, 0.4142456, 0.12838745, 4974366, 0.01771462, -0.21481514, -0.8472152, 0, 0, 0, 0, -1, 0, 0, 0
5065918, 0.2290802, 0.43745422, 0.13204956, 4974366, 0.01771462, -0.21481514, -0.8472152, 0, 0, 0, 0, -1, 0, 0, 0
5035400, 0.15577698, 0.7465668, 0.13693237, 7019043, 0.23024844, 0.17690706, -1.9439745, 0, 0, 0, 0, -1, 0, 0, 0
5035400, 0.028717041, 1.1301727, 0.14303589, 5065918, -0.2820957, 0.50829077, -4.0154095, 0, 0, 0, 0, -1, 0, 0, 0
5035401, -0.16307068, 0.7881012, 0.11250305, 5035400, -0.19222358, 1.0610971, -4.9019804, 0, 0, 0, 0, -1, 0, 0, 0
5035401, -0.16307068, 0.7881012, 0.11250305, 5035401, -1.3869166, -0.2922864, -2.4644856, 0, 0, 0, 0, -1, 0, 0, 0
4943848, -0.3304596, -0.0035705566, 0.085632324, 5035401, -1.3869166, -0.2922864, -2.4644856, 1, 916, 905, 1, -1, 82505677, 0, 33528177
4943848, -0.3304596, -0.0035705566, 0.085632324, 4943848, -0.9087043, 0.35088778, -1.1199894, 0, 0, 0, 1, -1, 0, 0, 0
4913330, -0.38664246, -0.1330719, 0.10762024, 4913330, -0.77542937, 0.3729124, -0.6630173, 0, 0, 0, 1, -1, 0, 0, 0
4943848, -0.44161987, -0.1306305, 0.12594604, 4943848, -0.32798102, 0.23702145, 0.16777468, 0, 0, 0, 1, -1, 0, 0, 0
4943847, -0.45506287, -0.12940979, 0.13938904, 4943847, 0.10533255, 0.1794548, 0.9030485, 0, 0, 0, 1, -1, 0, 0, 0
4974366, -0.42208862, -0.12452698, 0.12838745, 4974366, 0.3127631, 0.13681698, 1.5290952, 0, 0, 0, 1, -1, 0, 0, 0
4943848, -0.35488892, -0.10374451, 0.10028076, 4974366, 0.3127631, 0.13681698, 1.5290952, 0, 0, 0, 1, -1, 0, 0, 0
4943848, -0.35488892, -0.10374451, 0.10028076, 4943848, 0.64942175, 0.11729574, 2.094615, 0, 0, 0, 1, -1, 0, 0, 0
4943847, -0.20948792, -0.023117065, 0.046539307, 4943848, 0.64942175, 0.11729574, 2.094615, 0, 0, 0, 1, -1, 0, 0, 0
4913330, -0.13253784, 0.01473999, 0.014770508, 4943848, 0.64386815, 0.042175293, 2.1237407, 0, 0, 0, 1, -1, 0, 0, 0
4974366, -0.06777954, 0.02696228, -0.004776001, 4943847, 0.51067686, 0.010900021, 2.0403485, 0, 0, 0, 1, -1, 0, 0, 0
4913330, -0.0030517578, 0.024520874, -0.019424438, 4913330, 0.34723395, -0.0026926994, 1.9688091, 0, 0, 0, 1, -1, 0, 0, 0
4943847, 0.06048584, 0.01109314, -0.02798462, 4974366, 0.084667176, 0.0011940002, 1.9296813, 0, 0, 0, 1, -1, 0, 0, 0
4943847, 0.06048584, 0.01109314, -0.02798462, 4943847, -0.27107254, 0.1526308, 1.5683279, 0, 0, 0, 1, -1, 0, 0, 0
4974366, 0.115448, -0.0011138916, -0.013305664, 4974366, -0.21972573, 0.23600912, 1.2768335, 0, 0, 0, 1, -1, 0, 0, 0
4943847, 0.14477539, 0.008651733, -0.0096588135, 4943847, -0.25641182, 0.41725492, 0.5857868, 0, 0, 0, 1, -1, 0, 0, 0
4943848, 0.18510437, 0.121032715, -0.030426025, 4943847, -0.25641182, 0.41725492, 0.5857868, 0, 0, 0, 1, -1, 0, 0, 0
4943848, 0.18510437, 0.121032715, -0.030426025, 4943848, -0.31285122, 0.24215984, -0.81553555, 0, 0, 0, 1, -1, 0, 0, 0
4943848, 0.17530823, 0.07215881, -0.10494995, 4943848, -0.31285122, 0.24215984, -0.81553555, 0, 0, 0, -1, -1, 55039427, 0, 0
4943848, 0.17530823, 0.07215881, -0.10494995, 4943848, -0.50352716, -0.44297218, -2.1892052, 0, 0, 0, -1, -1, 0, 0, 0
4943847, 0.20951843, -0.26869202, -0.114715576, 4943847, 0.26673883, -0.37616348, -5.1245522, 0, 0, 0, -1, -1, 0, 0, 0
4943848, 0.2816162, -1.0310364, -0.10494995, 4943848, -0.5696822, 0.6819353, -2.3703265, 0, 0, 0, -1, -1, 0, 0, 0
7019043, 0.21443176, -0.89419556, -0.17945862, 7019043, -0.0951173, 0.55807066, -2.369967, 0, 0, 0, -1, -1, 0, 0, 0
5035401, 0.12156677, -0.513031, -0.19778442, 5035401, -0.5971117, 0.31555223, -1.7225375, 1, 205, 1049, 0, -1, 0, 0, 47968385
5065917, -0.020126343, -0.08175659, -0.13916016, 5065917, -0.9113905, 0.037898064, -1.8263092, 0, 0, 0, 0, -1, 0, 0, 0
5035401, -0.17895508, 0.12591553, -0.08540344, 5035401, -1.2371421, 0.02137804, -2.0757346, 0, 0, 0, 0, -1, 0, 0, 0
5035400, -0.3500061, 0.02696228, -0.049972534, 5035400, -0.9757188, 0.0012860298, -1.6485529, 0, 0, 0, 0, -1, 0, 0, 0
4913330, -0.48439026, -0.16362, -0.03286743, 4913330, -0.527498, -0.09111786, -0.048284054, 0, 0, 0, 0, -1, 0, 0, 0
4943848, -0.5491333, -0.2271576, -0.019424438, 4943848, 0.01615265, -0.09897804, 1.0710287, 0, 0, 0, 0, -1, 0, 0, 0
4943848, -0.5650177, -0.15505981, -0.019424438, 4943848, 0.11474112, -0.21650505, 1.948533, 0, 0, 0, 0, -1, 0, 0, 0
4974365, -0.5259247, -0.04144287, -0.007217407, 4974365, 0.09875424, -0.2311306, 2.5410652, 0, 0, 0, 0, -1, 0, 0, 0
4943848, -0.4330902, 0.012298584, 0.009887695, 4943848, -0.044073418, -0.21870232, 2.8851829, 0, 0, 0, 0, -1, 0, 0, 0
4943847, -0.3121338, -0.009674072, 0.028213501, 4943847, -0.13619557, -0.3927188, 2.9844089, 0, 0, 0, 0, -1, 0, 0, 0
4943848, -0.19116211, -0.07077026, 0.05142212, 4943848, -0.15606757, -0.47568035, 2.9167747, 0, 0, 0, 0, -1, 0, 0, 0
4913330, -0.061676025, -0.10620117, 0.057525635, 4913330, -0.30744207, -0.48516178, 2.7093353, 0, 0, 0, 0, -1, 0, 0, 0
4943848, 0.09101868, -0.09031677, 0.06851196, 4943848, -0.31935927, -0.46243, 2.3870158, 0, 0, 0, 0, -1, 0, 0, 0
4943847, 0.18510437, -0.05366516, 0.07463074, 4943847, -0.32538447, -0.36224222, 1.8160138, 0, 0, 0, 0, -1, 0, 0, 0
4943848, 0.23884583, 0.012298584, 0.073410034, 4943848, -0.30542526, -0.26664305, 1.1045575, 0, 0, 0, 0, -1, 0, 0, 0
5004883, 0.25108337, 0.0819397, 0.08929443, 5004883, -0.19699444, -0.19185257, 0.5588546, 0, 0, 0, 0, -1, 0, 0, 0
4882812, 0.2657318, 0.20655823, 0.07585144, 4882812, 0.005586982, -0.29035187, -0.015806675, 0, 0, 0, 0, -1, 0, 0, 0
4943848, 0.38056946, 0.57551575, 0.033096313, 4943848, -0.31863466, 0.29009676, -1.8492084, 0, 0, 0, 0, -1, 0, 0, 0
4974365, 0.35491943, 0.4802246, 0.030654907, 4974365, 0.5047919, 0.70786, -3.2828956, 0, 0, 0, 0, -1, 0, 0, 0
4943848, 0.2107544, 0.14668274, 0.01965332, 4943848, 0.15675437, 0.08001804, -3.4689312, 0, 0, 0, 0, -1, 0, 0, 0
4943847, 0.066589355, -0.14649963, -0.02798462, 4943847, 0.32793137, 0.155406, -3.2363477, 0, 0, 0, 0, -1, 0, 0, 0
4943848, -0.09954834, -0.2503662, -0.086624146, 4943848, 0.1899902, 0.5236249, -3.0882912, 1, 776, 1120, 1, -1, 77525781, 0, 32468802
4913330, -0.09954834, -0.2503662, -0.08906555, 4913330, -0.45846832, 0.44969463, -2.786459, 0, 0, 0, 1, -1, 0, 0, 0
4974365, -0.25958252, -0.17826843, -0.08906555, 4974365, -0.5536906, -0.0044908524, -2.0226898, 0, 0, 0, 1, -1, 0, 0, 0
4974366, -0.42817688, -0.08909607, -0.053634644, 4974366, -0.32865977, -0.19738197, -0.97736263, 0, 0, 0, 1, -1, 0, 0, 0
4882812, -0.53326416, -0.06832886, -0.0023345947, 4882812, -0.09788649, -0.2776065, 0.056253433, 0, 0, 0, 1, -1, 0, 0, 0
5065918, -0.51737976, -0.098861694, 0.005004883, 4882812, -0.09788649, -0.2776065, 0.056253433, 0, 0, 0, 1, -1, 0, 0, 0
5065918, -0.51737976, -0.098861694, 0.005004883, 5065918, 0.38977432, -0.23553276, 1.8368077, 0, 0, 0, 1, -1, 0, 0, 0
5004883, -0.3805542, -0.04144287, -0.041427612, 5065918, 0.38977432, -0.23553276, 1.8368077, 0, 0, 0, 1, -1, 0, 0, 0
5004883, -0.3805542, -0.04144287, -0.041427612, 5004883, -0.15175107, -0.08139229, 2.1817408, 0, 0, 0, 1, -1, 0, 0, 0
5065918, -0.29379272, 0.003768921, -0.03164673, 5065918, -0.25512895, 0.022122383, 2.237009, 0, 0, 0, 1, -1, 0, 0, 0
4943848, -0.11909485, 0.059936523, -0.013305664, 5065918, -0.25512895, 0.022122383, 2.237009, 0, 0, 0, 1, -1, 0, 0, 0
4943848, -0.056777954, 0.0660553, -0.02798462, 4943847, -0.21241014, 0.08667278, 2.1783085, 0, 0, 0, 1, -1, 0, 0, 0
4943847, 0.0030670166, 0.0660553, -0.041427612, 4943848, -0.1391281, 0.1969409, 2.0787573, 0, 0, 0, 1, -1, 0, 0, 0
4943847, 0.0030670166, 0.0660553, -0.041427612, 4943847, -0.4947922, 0.6292834, 1.5354185, 0, 0, 0, 1, -1, 0, 0, 0
4943848, 0.0030670166, 0.04649353, -0.05241394, 4943848, -0.742521, 0.8173542, 1.406807, 0, 0, 0, 1, -1, 0, 0, 0
4943847, 0.06414795, -0.04144287, -0.045074463, 4943848, -0.742521, 0.8173542, 1.406807, 0, 0, 0, 1, -1, 0, 0, 0
4943848, 0.09591675, 0.006210327, -0.04019165, 4943848, -0.762629, 0.6490803, 1.1723852, 0, 0, 0, 1, -1, 0, 0, 0
4943848, 0.1313324, 0.07460022, -0.06829834, 4943847, -0.34166524, 0.2062974, 0.6229534, 0, 0, 0, 1, -1, 0, 0, 0
4943848, 0.1313324, 0.07460022, -0.06829834, 4943848, -0.0980334, -0.4490099, -0.60968876, 0, 0, 0, 1, -1, 0, 0, 0
4943848, 0.17286682, 0.013534546, -0.1379242, 4943848, -0.0980334, -0.4490099, -0.60968876, 0, 0, 0, -1, -1, 65499427, 0, 0
4943848, 0.17286682, 0.013534546, -0.1379242, 4943848, -0.24332972, -0.37669992, -1.9113779, 0, 0, 0, -1, -1, 0, 0, 0
4943848, 0.16921997, -0.123291016, -0.15992737, 4943848, -0.19787526, -0.87611437, -3.4220114, 0, 0, 0, -1, -1, 0, 0, 0
4943847, 0.14845276, -0.3859558, -0.14648438, 4943847, 0.46134183, 0.37095308, -5.2749653, 0, 0, 0, -1, -1, 0, 0, 0
4943848, 0.14601135, -1.1654205, -0.11593628, 4943848, -0.10517284, 1.0584779, -2.4649124, 0, 0, 0, -1, -1, 0, 0, 0
4974365, -0.14474487, -0.5814514, -0.1880188, 4943848, -0.10517284, 1.0584779, -2.4649124, 0, 0, 0, -1, -1, 0, 0, 0
4913330, -0.3206787, -0.16726685, -0.13916016, 4913330, 0.29066983, 0.9176011, -2.515832, 0, 0, 0, -1, -1, 0, 0, 0
4974366, -0.4831848, 0.013534546, -0.08906555, 4974365, -0.43431032, 0.5911255, -1.7745638, 1, 163, 1025, 0, -1, 0, 0, 60188906
4974366, -0.4831848, 0.013534546, -0.08906555, 4974366, -1.2057956, 0.098826885, -1.3503561, 0, 0, 0, 0, -1, 0, 0, 0
4943847, -0.6114502, -0.07077026, -0.04875183, 4943847, -0.96703696, -0.11048651, -0.4105978, 0, 0, 0, 0, -1, 0, 0, 0
4913330, -0.6517792, -0.24424744, -0.0096588135, 4943847, -0.96703696, -0.11048651, -0.4105978, 0, 0, 0, 0, -1, 0, 0, 0
4943848, -0.5576935, -0.1355133, -0.004776001, 4943848, -0.48760176, -0.36313152, 1.0227022, 0, 0, 0, 0, -1, 0, 0, 0
4943848, -0.5576935, -0.1355133, -0.004776001, 4943848, 0.29645804, -0.5634718, 3.2976255, 0, 0, 0, 0, -1, 0, 0, 0
7080078, -0.40740967, -0.047561646, -0.019424438, 7080078, 0.31127077, -0.5082464, 4.071967, 0, 0, 0, 0, -1, 0, 0, 0
5035400, -0.21560669, -0.062210083, -0.035308838, 5035400, 0.19093272, -0.50450134, 4.365097, 0, 0, 0, 0, -1, 0, 0, 0
5035401, 6.2561035E-4, -0.15261841, -0.025543213, 5035401, 0.07220548, -0.49271917, 4.0888977, 0, 0, 0, 0, -1, 0, 0, 0
5035400, 0.1973114, -0.22348022, -0.010864258, 5035400, 0.014777981, -0.43976212, 3.22752, 0, 0, 0, 0, -1, 0, 0, 0
5035400, 0.33293152, -0.23692322, -0.01210022, 5035400, -0.06815481, -0.26946878, 2.5170755, 0, 0, 0, 0, -1, 0, 0, 0
4943848, 0.39279175, -0.1660614, -0.0010986328, 4943848, -0.09472388, -0.06188345, 1.7209997, 0, 0, 0, 0, -1, 0, 0, 0
4943848, 0.4330902, -0.042663574, 0.013534546, 4943848, -0.056491204, 0.031463623, 0.85236263, 0, 0, 0, 0, -1, 0, 0, 0
4943847, 0.4330902, 0.07582092, 0.022094727, 4943847, 0.056598194, 0.070221424, 0.116292, 0, 0, 0, 0, -1, 0, 0, 0
4943848, 0.4147644, 0.15766907, 0.03553772, 4943848, 0.27940544, 0.06354952, -0.47295094, 0, 0, 0, 0, -1, 0, 0, 0
4943848, 0.36714172, 0.20776367, 0.041641235, 4943848, 0.8904258, 0.17745543, -1.3892059, 0, 0, 0, 0, -1, 0, 0, 0
4913330, 0.35858154, 0.28962708, 0.036758423, 4913330, 0.9930984, -0.50472975, -0.82728577, 0, 0, 0, 0, -1, 0, 0, 0
4974365, 0.6725769, 0.7648926, -0.037750244, 4974365, 0.9514636, 0.094946384, -0.110357285, 0, 0, 0, 0, -1, 0, 0, 0
4913330, 0.78862, 0.73677063, -0.06951904, 4913330, 0.015977025, 0.87416744, -3.985797, 0, 0, 0, 0, -1, 0, 0, 0
4974365, 0.66645813, 0.38613892, -0.057296753, 4974365, -1.2115159, 0.11875343, -3.9722767, 0, 0, 0, 0, -1, 0, 0, 0
4943848, 0.48442078, 0.031845093, -0.016983032, 4943848, -1.5950782, -0.002213955, -3.9786868, 1, 788, 1389, 1, -1, 73773542, 0, 41711458
4943848, 0.24862671, -0.22471619, 0.003768921, 4943848, -1.606699, 0.080806255, -3.6441264, 0, 0, 0, 1, -1, 0, 0, 0
4943847, -0.009155273, -0.30654907, 0.033096313, 4943847, -1.5235903, 0.045886517, -3.2070355, 0, 0, 0, 1, -1, 0, 0, 0
4943848, -0.25593567, -0.27233887, 0.058746338, 4943848, -0.7013546, -0.14201832, -1.9935641, 0, 0, 0, 1, -1, 0, 0, 0
4943848, -0.44285583, -0.2137146, 0.10028076, 4943848, 0.005561143, -0.20348406, -0.6914568, 0, 0, 0, 1, -1, 0, 0, 0
4943847, -0.53570557, -0.15873718, 0.11982727, 4943847, 0.45816225, 0.048484325, 0.56840134, 0, 0, 0, 1, -1, 0, 0, 0
4943848, -0.53448486, -0.15873718, 0.09906006, 4943848, 0.86309475, 0.13453674, 1.3438616, 0, 0, 0, 1, -1, 0, 0, 0
4943848, -0.53448486, -0.07321167, 0.09906006, 4943848, 1.1338134, 0.13454151, 1.6546497, 0, 0, 0, 1, -1, 0, 0, 0
4943847, -0.49050903, 0.006210327, 0.07096863, 4943847, 1.1976064, 0.15420389, 1.830369, 0, 0, 0, 1, -1, 0, 0, 0
5096436, -0.41964722, 0.07215881, 0.026977539, 5096436, 1.0163502, 0.15006495, 1.9468613, 0, 0, 0, 1, -1, 0, 0, 0
4943848, -0.2546997, 0.14179993, -0.045074463, 5096436, 1.0163502, 0.15006495, 1.9468613, 0, 0, 0, 1, -1, 0, 0, 0
4943848, -0.2546997, 0.14179993, -0.045074463, 4943848, 0.35632423, 0.13788319, 1.7483292, 0, 0, 0, 1, -1, 0, 0, 0
4943848, -0.17895508, 0.16256714, -0.041427612, 4943848, 0.15089, 0.2524805, 1.4019775, 0, 0, 0, 1, -1, 0, 0, 0
5065918, -0.006713867, 0.16500854, -0.06463623, 4943848, 0.15089, 0.2524805, 1.4019775, 0, 0, 0, 1, -1, 0, 0, 0
5065918, -0.006713867, 0.16500854, -0.06463623, 5065918, -0.24707052, 0.4004016, 0.64797115, 0, 0, 0, 1, -1, 0, 0, 0
5035400, 0.07757568, 0.22976685, -0.051193237, 5035400, -0.13748036, 0.01750946, 0.3477106, 0, 0, 0, 1, -1, 0, 0, 0
5004883, 0.13989258, 0.3262787, -0.060958862, 5004883, -0.07052252, -0.2861719, -0.34251213, 0, 0, 0, 1, -1, 0, 0, 0
5065918, 0.16065979, 0.3592682, -0.074401855, 5065918, -0.2550361, -0.45699358, -0.804162, 0, 0, 0, -1, -1, 47423907, 0, 0
4943848, 0.13500977, 0.30673218, -0.08540344, 4943848, -0.5171567, -0.55006456, -1.2155857, 0, 0, 0, -1, -1, 0, 0, 0
4943847, 0.09591675, 0.30673218, -0.08418274, 4943847, -0.9146042, -0.5596185, -1.6115484, 0, 0, 0, -1, -1, 0, 0, 0
4943848, 0.09591675, 0.19799805, -0.08418274, 4943848, -1.2768598, -0.28038454, -1.648035, 0, 0, 0, -1, -1, 0, 0, 0
4943848, 0.012832642, 0.0819397, -0.07196045, 4943848, -1.1639249, -0.036761284, -1.6558113, 0, 0, 0, -1, -1, 0, 0, 0
4913330, -0.07511902, -0.018234253, -0.04751587, 4913330, -0.9269065, 0.12972784, -1.6327457, 0, 0, 0, -1, -1, 0, 0, 0
4974365, -0.16307068, -0.084198, -0.007217407, 4974365, -0.7173711, 0.24909925, -1.1478977, 0, 0, 0, -1, -1, 0, 0, 0
4943847, -0.2571411, -0.14041138, 0.015975952, 4943847, -0.49603808, 0.3640337, -0.54898167, 0, 0, 0, -1, -1, 0, 0, 0
4943848, -0.34266663, -0.1819458, 0.026977539, 4943848, -0.16346765, 0.38727188, 0.038983345, 0, 0, 0, -1, -1, 0, 0, 0
4943848, -0.38787842, -0.17582703, 0.025772095, 4943848, 0.1196226, 0.39789867, 0.5654459, 0, 0, 0, -1, -1, 0, 0, 0
4943847, -0.38909912, -0.14161682, 0.025772095, 4943847, 0.43000132, 0.41559792, 0.97828674, 0, 0, 0, -1, -1, 0, 0, 0
4943848, -0.36587524, -0.095199585, 0.015975952, 4943848, 0.6298524, 0.34827137, 1.4637547, 0, 0, 0, -1, -1, 0, 0, 0
4943848, -0.3182373, -0.054885864, 0.008651733, 4943848, 0.7559675, 0.2758665, 1.9298277, 0, 0, 0, -1, -1, 0, 0, 0
4943847, -0.26081848, -0.023117065, -0.003540039, 4943847, 0.69731945, 0.20763779, 2.3555727, 0, 0, 0, -1, -1, 0, 0, 0
4943848, -0.054336548, 0.064819336, 0.014770508, 4943847, 0.69731945, 0.20763779, 2.3555727, 0, 0, 0, -1, -1, 0, 0, 0
4943847, 0.050704956, 0.13935852, 0.03919983, 4943848, 0.6383528, 0.12936735, 2.320755, 0, 0, 0, -1, -1, 0, 0, 0
4943848, 0.15333557, 0.19676208, 0.04286194, 4943848, 0.51261264, 0.081389904, 2.0924358, 0, 0, 0, -1, -1, 0, 0, 0
4943848, 0.15333557, 0.19676208, 0.04286194, 4943848, 0.16366407, -0.05004692, 1.2176037, 0, 0, 0, -1, -1, 0, 0, 0
4943848, 0.2315216, 0.24076843, 0.05630493, 4943848, -0.08843607, -0.10289335, 0.30965424, 0, 0, 0, -1, -1, 0, 0, 0
4943847, 0.29626465, 0.26029968, 0.08073425, 4943847, -0.4681731, -0.16399431, -0.2646637, 0, 0, 0, -1, -1, 0, 0, 0
4943848, 0.31582642, 0.19311523, 0.08807373, 4943847, -0.4681731, -0.16399431, -0.2646637, 0, 0, 0, -1, -1, 0, 0, 0
4913330, 0.2828369, 0.13813782, 0.09906006, 4943848, -0.6364241, -0.18573189, -0.8919029, 0, 0, 0, -1, -1, 0, 0, 0
4913330, 0.2828369, 0.13813782, 0.09906006, 4913330, -0.63884073, -0.25466824, -1.756032, 0, 0, 0, -1, -1, 0, 0, 0
7080078, 0.21195984, 0.09170532, 0.09906006, 7080078, -0.5802798, -0.26168156, -2.0129633, 0, 0, 0, -1, -1, 0, 0, 0
5035400, 0.1313324, 0.07826233, 0.097839355, 5035400, -0.48106295, -0.22394276, -1.9297276, 0, 0, 0, -1, -1, 0, 0, 0
5035400, -0.073898315, 0.17111206, 0.094177246, 5035400, -0.48106295, -0.22394276, -1.9297276, 0, 0, 0, -1, -1, 0, 0, 0
5035400, -0.073898315, 0.17111206, 0.094177246, 5035400, -0.3039524, -0.15450382, -1.4123011, 0, 0, 0, -1, -1, 0, 0, 0
5035400, -0.17407227, 0.21020508, 0.09051514, 5035400, -0.34636945, -0.2089181, -1.1124964, 0, 0, 0, -1, -1, 0, 0, 0
4943848, -0.24249268, 0.20411682, 0.10028076, 4943848, -0.36030754, -0.15372086, -0.55369186, 0, 0, 0, -1, -1, 0, 0, 0
4943848, -0.23881531, 0.18455505, 0.10517883, 4943848, -0.33471516, -0.26318884, 0.8948746, 0, 0, 0, -1, -1, 0, 0, 0
4943847, -0.050689697, 0.3323822, 0.08073425, 4943847, 0.039292157, -0.11677456, 1.9505091, 0, 0, 0, -1, -1, 0, 0, 0
4943848, 0.13989258, 0.3653717, 0.046539307, 4943848, -0.06937352, 0.3959937, 1.4626131, 0, 0, 0, -1, -1, 0, 0, 0
4943848, 0.27061462, 0.25665283, 0.024536133, 4943848, -0.030918956, 0.35362244, 1.2298546, 0, 0, 0, -1, -1, 0, 0, 0
4943847, 0.35980225, 0.16500854, -0.007217407, 4943847, 0.25890157, 0.38457823, 0.88946056, 0, 0, 0, -1, -1, 0, 0, 0
4943848, 0.4098816, 0.13079834, -0.081726074, 4943848, 0.43871495, 0.33890533, 0.6133013, 1, 830, 1437, 0, -1, 0, 0, 191207552
4913330, 0.40255737, 0.12835693, -0.11959839, 4913330, 0.2144059, 0.24566555, -0.1383791, 0, 0, 0, 0, -1, 0, 0, 0
4943848, 0.34025574, 0.11125183, -0.11593628, 4943848, -0.07984123, 0.22735071, -0.49246788, 0, 0, 0, 0, -1, 0, 0, 0
4943847, 0.25717163, 0.07215881, -0.10128784, 4943847, -0.34824803, 0.16861105, -0.58391285, 0, 0, 0, 0, -1, 0, 0, 0
4913331, 0.16065979, 0.025726318, -0.06951904, 4913331, -0.5073577, 0.054312706, -0.6304102, 0, 0, 0, 0, -1, 0, 0, 0
4943847, 0.08369446, 0.0049743652, -0.03652954, 4943847, -0.49483103, -0.063082695, -0.544281, 0, 0, 0, 0, -1, 0, 0, 0
4943848, 0.03604126, 0.003768921, -0.024307251, 4943848, -0.4210945, -0.17154169, -0.4712963, 0, 0, 0, 0, -1, 0, 0, 0
4974365, 0.03604126, 0.003768921, -0.019424438, 4974365, -0.3871125, -0.22561884, -0.45336533, 0, 0, 0, 0, -1, 0, 0, 0
4943848, 0.004272461, -0.010910034, -0.019424438, 4943848, -0.47372, -0.2785821, -0.38167286, 0, 0, 0, 0, -1, 0, 0, 0
4943847, -0.04701233, -0.051208496, -0.0206604, 4943847, -0.6455831, -0.3143487, -0.1475172, 0, 0, 0, 0, -1, 0, 0, 0
4943848, -0.08610535, -0.09642029, -0.007217407, 4943848, -0.7659285, -0.2699747, 0.11836529, 0, 0, 0, 0, -1, 0, 0, 0
4913330, -0.12765503, -0.1184082, -0.0010986328, 4913330, -0.7431599, -0.317945, 0.36892223, 0, 0, 0, 0, -1, 0, 0, 0
4943848, -0.15696716, -0.12573242, 0.01109314, 4943848, -0.6042971, -0.42221165, 0.6540003, 0, 0, 0, 0, -1, 0, 0, 0
4974365, -0.17529297, -0.1318512, 0.008651733, 4974365, -0.399735, -0.52681494, 0.865942, 0, 0, 0, 0, -1, 0, 0, 0
4943848, -0.16551208, -0.1355133, 0.008651733, 4943848, -0.20917553, -0.5194001, 0.9342928, 0, 0, 0, 0, -1, 0, 0, 0
4913330, -0.14962769, -0.12084961, -0.014541626, 4913330, -0.09231117, -0.15518093, 0.83142567, 0, 0, 0, 0, -1, 0, 0, 0
5035400, 0.08735657, 0.03916931, -0.06951904, 4913330, -0.09231117, -0.15518093, 0.83142567, 0, 0, 0, 0, -1, 0, 0, 0
5035401, 0.19242859, -0.27357483, -0.060958862, 7080078, -0.19239676, 0.4923625, 0.36731625, 0, 0, 0, -1, -1, 65495156, 0, 0
5035401, 0.19242859, -0.27357483, -0.060958862, 5035401, -1.1353803, -1.221334, -0.17796516, 0, 0, 0, -1, -1, 0, 0, 0
5004883, 0.5589447, -1.0786896, 0.0013427734, 5035401, -1.1353803, -1.221334, -0.17796516, 0, 0, 0, -1, -1, 0, 0, 0
4943847, 0.76908875, -1.2692871, -0.0010986328, 5035400, -1.0444976, -0.5829363, -0.47568798, 0, 0, 0, -1, -1, 0, 0, 0
4943847, 0.76908875, -1.2692871, -0.0010986328, 4943847, -0.21623611, -0.47654438, -0.012051582, 0, 0, 0, -1, -1, 0, 0, 0
4943847, 0.8277283, -0.42140198, 0.11128235, 4943847, -0.21623611, -0.47654438, -0.012051582, 1, 165, 1339, 0, -1, 0, 0, 46375989
4943848, 0.71655273, -0.14529419, 0.17604065, 4974366, -0.08926889, -0.16908312, -0.6512995, 0, 0, 0, 0, -1, 0, 0, 0
4943848, 0.71655273, -0.14529419, 0.17604065, 4943848, 0.29858685, 0.5692954, -0.93474674, 0, 0, 0, 0, -1, 0, 0, 0
4943848, 0.5809326, 0.02696228, 0.1613617, 4943848, 0.8281698, 1.0122695, -1.3496141, 0, 0, 0, 0, -1, 0, 0, 0
4974365, 0.23396301, 0.18455505, 0.0440979, 4943848, 0.8281698, 1.0122695, -1.3496141, 0, 0, 0, 0, -1, 0, 0, 0
4943848, 0.061706543, 0.21632385, -0.004776001, 4913330, 1.1528089, 1.2255664, -0.9821539, 0, 0, 0, 0, -1, 0, 0, 0
4943848, 0.061706543, 0.21632385, -0.004776001, 4943848, 0.83764195, 0.7824912, 0.29554605, 0, 0, 0, 0, -1, 0, 0, 0
4943847, -0.05923462, 0.24685669, -0.06463623, 4943848, 0.83764195, 0.7824912, 0.29554605, 0, 0, 0, 0, -1, 0, 0, 0
4974366, -0.026245117, 0.25785828, -0.08906555, 4913330, 0.60992575, 0.54013634, 0.9769983, 0, 0, 0, 0, -1, 0, 0, 0
4943847, 0.02015686, 0.25665283, -0.09516907, 4943847, 0.46575084, 0.3894124, 1.4329143, 0, 0, 0, 0, -1, 0, 0, 0
4943847, 0.02015686, 0.25665283, -0.09516907, 4943847, 0.18485014, 0.3623991, 1.3045144, 0, 0, 0, 0, -1, 0, 0, 0
4913330, 0.045822144, 0.24809265, -0.08784485, 4913330, -0.003064081, 0.4329214, 0.70175076, 0, 0, 0, 0, -1, 0, 0, 0
4974365, 0.006713867, 0.29084778, -0.060958862, 4913330, -0.003064081, 0.4329214, 0.70175076, 0, 0, 0, 0, -1, 0, 0, 0
4974365, 0.006713867, 0.29084778, -0.060958862, 4974365, -0.35597464, 0.24615097, -0.00581789, 0, 0, 0, 0, -1, 0, 0, 0
4943848, -0.054336548, 0.3311615, -0.03652954, 4943848, -0.47953063, 0.048307896, 0.015467167, 0, 0, 0, 0, -1, 0, 0, 0
4913330, -0.10321045, 0.3690338, -0.019424438, 4913330, -0.65158844, -0.3321619, 0.18021059, 0, 0, 0, 0, -1, 0, 0, 0
4943848, -0.14353943, 0.3849182, 0.0013427734, 4943848, -1.0134444, -0.9238477, 0.48213863, 0, 0, 0, 0, -1, 0, 0, 0
4974365, -0.13742065, 0.3421631, 0.023330688, 4974365, -1.2229195, -1.1818633, 0.7280836, 0, 0, 0, 0, -1, 0, 0, 0
4943848, -0.050689697, 0.18455505, 0.061187744, 4943848, -1.2204161, -1.2915401, 0.531157, 0, 0, 0, 0, -1, 0, 0, 0
4943847, 0.18754578, -0.0060272217, 0.14671326, 4943848, -1.2204161, -1.2915401, 0.531157, 0, 0, 0, 0, -1, 0, 0, 0
4943847, 0.18754578, -0.0060272217, 0.14671326, 4943847, -0.3799026, -0.97229815, -0.46096277, 0, 0, 0, -1, -1, 78358750, 0, 0
7110596, 0.27549744, 0.10270691, 0.17480469, 7110596, -0.37725982, -0.17479324, -1.123435, 0, 0, 0, -1, -1, 0, 0, 0
5035400, 0.4807434, 0.6561432, 0.18092346, 5035400, 0.053355962, 1.130507, -3.0478826, 0, 0, 0, -1, -1, 0, 0, 0
5035401, 0.48686218, 0.7563324, 0.18580627, 5035401, 0.33235848, 1.132494, -3.7911115, 0, 0, 0, -1, -1, 0, 0, 0
5035400, 0.33415222, 0.5009918, 0.17114258, 5035400, 0.0024056137, 0.70077944, -3.0746384, 1, 780, 1148, 0, -1, 0, 0, 43684583
5035401, 0.16065979, 0.17843628, 0.12226868, 5035401, 0.10627529, 0.7502165, -2.6697888, 0, 0, 0, 0, -1, 0, 0, 0
4943847, -0.022567749, 0.025726318, 0.040420532, 4943847, 0.09342584, 0.71713734, -2.4218206, 0, 0, 0, 0, -1, 0, 0, 0
4943848, -0.21560669, 0.07093811, -0.0010986328, 4943848, -0.019738674, 0.42858505, -1.9845161, 0, 0, 0, 0, -1, 0, 0, 0
4943848, -0.37809753, 0.16746521, 0.003768921, 4943848, -0.015211642, -0.05589342, -0.9489784, 0, 0, 0, 0, -1, 0, 0, 0
4943847, -0.48683167, 0.20532227, 0.028213501, 4943847, 0.20383805, -0.47532606, 0.23486757, 0, 0, 0, 0, -1, 0, 0, 0
4943848, -0.49783325, 0.22000122, 0.026977539, 4943848, 0.15099874, -0.5641165, 1.35182, 0, 0, 0, 0, -1, 0, 0, 0
4943847, -0.45750427, 0.22608948, 0.023330688, 4943847, 0.1801017, -0.3545699, 1.7308683, 0, 0, 0, 0, -1, 0, 0, 0
4943848, -0.37809753, 0.25541687, 0.020874023, 4943848, 0.3390759, -0.136096, 2.0358596, 0, 0, 0, 0, -1, 0, 0, 0
4943848, -0.27670288, 0.2810669, 0.013534546, 4943848, 0.30735868, -0.019310474, 2.2615871, 0, 0, 0, 0, -1, 0, 0, 0
4943847, -0.16918945, 0.27497864, 0.013534546, 4943847, -2.0805001E-4, 0.042867184, 2.3123841, 0, 0, 0, 0, -1, 0, 0, 0
4943848, -0.07878113, 0.23588562, 0.014770508, 4943848, -0.22588083, 0.07592106, 2.4082499, 0, 0, 0, 0, -1, 0, 0, 0
4943848, 0.023834229, 0.23588562, 0.024536133, 4943848, -0.42808753, 0.061755657, 2.2809238, 0, 0, 0, 0, -1, 0, 0, 0
5187988, 0.12767029, 0.0978241, 0.04286194, 5187988, -0.5589971, 0.06386185, 2.0532737, 0, 0, 0, 0, -1, 0, 0, 0
4699707, 0.12767029, 0.0978241, 0.04286194, 4699707, -0.6565001, -0.04311371, 1.7690692, 0, 0, 0, 0, -1, 0, 0, 0
4943848, 0.22175598, 0.07337952, 0.058746338, 4943848, -0.6689831, -0.2409463, 1.4567714, 0, 0, 0, 0, -1, 0, 0, 0
4943847, 0.30848694, 0.11859131, 0.085632324, 4943847, -0.538741, -0.53564596, 1.0493641, 0, 0, 0, 0, -1, 0, 0, 0
4943848, 0.39645386, 0.17599487, 0.10394287, 4943848, -0.3596651, -0.55463076, 0.23928213, 0, 0, 0, 0, -1, 0, 0, 0
4943848, 0.4465332, 0.21508789, 0.110061646, 4943848, -0.2373352, -0.48629618, -0.7096348, 0, 0, 0, 0, -1, 0, 0, 0
4882812, 0.4440918, 0.21264648, 0.110061646, 4882812, -0.20098734, -0.42209673, -1.3631229, 0, 0, 0, 0, -1, 0, 0, 0
4943848, 0.39767456, 0.17599487, 0.10762024, 4943848, -0.2938851, -0.2358923, -1.2001586, 0, 0, 0, -1, -1, 71341615, 0, 0
4974365, 0.47097778, -0.063430786, 0.110061646, 4974365, -1.0706494, -1.8398209, 1.5197535, 0, 0, 0, -1, -1, 0, 0, 0
4943848, 0.9144745, -0.730484, 0.1821289, 4943848, -0.64522845, 0.20577765, -0.023563862, 0, 0, 0, -1, -1, 0, 0, 0
4943847, 1.0195313, -0.57777405, 0.16503906, 4943847, -0.24906442, 0.265522, -0.29807758, 0, 0, 0, -1, -1, 0, 0, 0
5035401, 0.8130646, 0.017196655, 0.12471008, 4943847, -0.24906442, 0.265522, -0.29807758, 1, 273, 1440, 0, -1, 0, 0, 62676771
5035401, 0.8130646, 0.017196655, 0.12471008, 5035401, -0.40306345, 0.32017994, -2.287644, 0, 0, 0, 0, -1, 0, 0, 0
5065918, 0.6114807, 0.07949829, 0.08929443, 5065918, -0.43147174, 0.22513628, -2.5334792, 0, 0, 0, 0, -1, 0, 0, 0
5035400, 0.38667297, 0.03916931, 0.06730652, 5035400, -0.12797907, 0.36541033, -2.5400414, 0, 0, 0, 0, -1, 0, 0, 0
4974365, -0.042129517, 0.01109314, 0.09173584, 5035400, -0.12797907, 0.36541033, -2.5400414, 0, 0, 0, 0, -1, 0, 0, 0
4974365, -0.042129517, 0.01109314, 0.09173584, 4974365, 0.48320267, 0.3554349, -1.1353126, 0, 0, 0, 0, -1, 0, 0, 0
4943848, -0.21072388, 0.10392761, 0.09051514, 4943848, 0.6000429, 0.35508013, 0.3190546, 0, 0, 0, 0, -1, 0, 0, 0
4913330, -0.3145752, 0.16622925, 0.06362915, 4913330, 0.6082306, 0.33880186, 1.7789335, 0, 0, 0, 0, -1, 0, 0, 0
4943848, -0.3206787, 0.12713623, 0.03919983, 4943848, 0.49361295, 0.27341175, 2.2911224, 0, 0, 0, 0, -1, 0, 0, 0
4943847, -0.26693726, 0.0831604, 0.008651733, 4943847, 0.12943205, 0.19632387, 2.2083187, 0, 0, 0, 0, -1, 0, 0, 0
4943848, -0.07266235, 0.061172485, -0.038986206, 4943847, 0.12943205, 0.19632387, 2.2083187, 0, 0, 0, 0, -1, 0, 0, 0
4943848, -0.07266235, 0.061172485, -0.038986206, 4943848, -0.39887768, -0.06274748, 1.7809477, 0, 0, 0, 0, -1, 0, 0, 0
4943848, 0.0140686035, 0.09414673, -0.025543213, 4943848, -0.43610382, -0.14436579, 1.2691326, 0, 0, 0, 0, -1, 0, 0, 0
4943848, 0.1496582, 0.25785828, 0.03186035, 4943848, -0.43610382, -0.14436579, 1.2691326, 0, 0, 0, 0, -1, 0, 0, 0
4913330, 0.17042542, 0.3580475, 0.061187744, 4943847, -0.42098212, -0.26527214, 0.9053769, 0, 0, 0, 0, -1, 0, 0, 0
4974365, 0.1631012, 0.44966125, 0.085632324, 4943848, -0.31261784, -0.32861423, 0.39019775, 0, 0, 0, 0, -1, 0, 0, 0
4974365, 0.1631012, 0.44966125, 0.085632324, 4974365, -0.7155845, -1.0994215, -1.1171007, 0, 0, 0, 0, -1, 0, 0, 0
4913330, 0.040924072, 0.44233704, 0.1796875, 4974365, -0.7155845, -1.0994215, -1.1171007, 0, 0, 0, 0, -1, 0, 0, 0
4913330, 0.040924072, 0.44233704, 0.1796875, 4913330, -1.2463756, -0.52658224, -3.2418842, 0, 0, 0, 0, -1, 0, 0, 0
4943848, 0.07637024, 0.45089722, 0.18701172, 4943848, -1.2351506, 0.97364664, -4.0061865, 0, 0, 0, 0, -1, 0, 0, 0
4943848, -0.021362305, 0.1002655, 0.117385864, 4943848, -1.2351506, 0.97364664, -4.0061865, 0, 0, 0, -1, -1, 61842604, 0, 0
4943848, -0.021362305, 0.1002655, 0.117385864, 4943848, -1.2692928, 0.48013496, -2.1579938, 0, 0, 0, -1, -1, 0, 0, 0
4943848, -0.25593567, -0.4922638, 0.07829285, 4943848, -1.2692928, 0.48013496, -2.1579938, 1, 619, 1063, 0, -1, 0, 0, 29508073
4943848, -0.25593567, -0.4922638, 0.07829285, 4943848, -0.8498442, 0.53824234, -1.8171263, 0, 0, 0, 0, -1, 0, 0, 0
4913330, -0.50027466, -0.3786316, 0.10394287, 4943848, -0.8498442, 0.53824234, -1.8171263, 0, 0, 0, 0, -1, 0, 0, 0
4913330, -0.50027466, -0.3786316, 0.10394287, 4913330, -0.17578721, 0.07685661, -0.6211896, 0, 0, 0, 0, -1, 0, 0, 0
4974365, -0.54792786, -0.20391846, 0.11616516, 4974365, 0.49636203, -0.19487524, 0.4123969, 0, 0, 0, 0, -1, 0, 0, 0
7049560, -0.55036926, -0.06832886, 0.106399536, 7049560, 0.9615998, -0.18788576, 1.196135, 0, 0, 0, 0, -1, 0, 0, 0
5035401, -0.50027466, 0.053833008, 0.07096863, 5035401, 1.0857947, 0.12059498, 1.8971562, 0, 0, 0, 0, -1, 0, 0, 0
5004883, -0.4013214, 0.15402222, 0.045303345, 5004883, 1.0582209, 0.3969221, 2.0305943, 0, 0, 0, 0, -1, 0, 0, 0
5035400, -0.2962494, 0.21388245, 0.017211914, 5035400, 0.91538316, 0.6187682, 2.0814023, 0, 0, 0, 0, -1, 0, 0, 0
5065918, -0.17774963, 0.23953247, -0.0096588135, 5065918, 0.72990966, 0.5832939, 2.2768812, 0, 0, 0, 0, -1, 0, 0, 0
4943848, -0.077560425, 0.27618408, -0.03652954, 4943848, 0.66142786, 0.46711397, 2.2529707, 0, 0, 0, 0, -1, 0, 0, 0
4913330, 0.01651001, 0.32139587, -0.04875183, 4913330, 0.46860045, 0.34829378, 2.217567, 0, 0, 0, 0, -1, 0, 0, 0
4943847, 0.082473755, 0.3617096, -0.04386902, 4943847, 0.16757977, 0.2559271, 2.3605475, 0, 0, 0, 0, -1, 0, 0, 0
4974366, 0.1337738, 0.3824768, -0.034088135, 4974366, -0.1175251, 0.20000029, 2.3099198, 0, 0, 0, 0, -1, 0, 0, 0
4943847, 0.15089417, 0.3678131, -0.025543213, 4943847, -0.44356823, -0.070150375, 1.7989216, 0, 0, 0, 0, -1, 0, 0, 0
4974366, 0.1472168, 0.41545105, 0.0013427734, 4974366, -0.4357177, -0.17967463, 1.0751462, 0, 0, 0, 0, -1, 0, 0, 0
4943847, 0.12522888, 0.45578003, 0.012329102, 4943847, -0.20085514, -0.21163273, 0.7601862, 0, 0, 0, 0, -1, 0, 0, 0
4943848, 0.098358154, 0.391037, 0.023330688, 4943848, -0.3029849, -0.2621274, 0.7705908, 0, 0, 0, 0, -1, 0, 0, 0
4943848, 0.10812378, 0.391037, 0.050186157, 4943848, -0.43422687, -0.36140013, 0.73084354, 0, 0, 0, 0, -1, 0, 0, 0
4913330, 0.10812378, 0.3482666, 0.050186157, 4913330, -0.6550974, -0.29142284, 0.380198, 0, 0, 0, 0, -1, 0, 0, 0
4974365, 0.14477539, 0.3629303, 0.052627563, 4974365, -0.5730284, -0.27043056, 0.09930897, 0, 0, 0, -1, -1, 79114114, 0, 0
4943848, 0.20831299, 0.377594, 0.033096313, 4943848, 0.37096483, -0.95194006, -0.22812271, 0, 0, 0, -1, -1, 0, 0, 0
4943847, 0.260849, 0.3421631, -0.035308838, 4943847, 0.2903787, -1.2607255, -0.45276403, 0, 0, 0, -1, -1, 0, 0, 0
4943848, 0.31826782, 0.3262787, -0.12327576, 4943848, 0.18465275, -1.423522, 0.11637688, 0, 0, 0, -1, -1, 0, 0, 0
4943847, 0.571167, -0.019454956, -0.14892578, 4943847, 0.5929794, -2.0902267, 0.09204531, 0, 0, 0, -1, -1, 0, 0, 0
4943848, 1.0134277, -0.691391, -0.15136719, 4943848, 1.0074631, -0.20479202, -0.024034977, 0, 0, 0, -1, -1, 0, 0, 0
4943848, 1.1062775, -0.6205292, -0.2515564, 4943848, 1.0711904, -0.11460924, -0.29282856, 0, 0, 0, -1, -1, 0, 0, 0
4943847, 1.1465912, -0.40428162, -0.3199768, 4943847, -0.15113127, 0.11386347, 0.24853516, 0, 0, 0, -1, -1, 0, 0, 0
4943848, 1.1233673, -0.1978302, -0.34318542, 4943848, -1.0068977, 0.39988804, 0.06927633, 1, 318, 1288, 0, -1, 0, 0, 83140989
4943848, 1.0610657, -0.17218018, -0.27844238, 4943848, -1.4418559, 0.6751318, -0.99050045, 0, 0, 0, 0, -1, 0, 0, 0
4943847, 0.9376831, -0.31022644, -0.15504456, 4943847, -1.4422832, 0.65155506, -1.8848896, 0, 0, 0, 0, -1, 0, 0, 0
4943848, 0.75930786, -0.39819336, -0.014541626, 4943848, -1.3251727, 0.77905416, -2.076498, 0, 0, 0, 0, -1, 0, 0, 0
5035400, 0.4306488, -0.05732727, 0.1796875, 4943848, -1.3251727, 0.77905416, -2.076498, 0, 0, 0, 0, -1, 0, 0, 0
5035400, 0.30848694, 0.2651825, 0.21513367, 7049561, -0.5972363, 1.0361557, -0.8088083, 0, 0, 0, 0, -1, 0, 0, 0
5035401, 0.21195984, 0.5205231, 0.21513367, 5035400, 0.3882954, 0.5894294, -0.60239077, 0, 0, 0, 0, -1, 0, 0, 0
5035401, 0.21195984, 0.5205231, 0.21513367, 5035401, 1.4475944, -0.3442564, -0.18724442, 0, 0, 0, 0, -1, 0, 0, 0
5035400, 0.1618805, 0.66470337, 0.1662445, 5035400, 1.2039626, -0.56742334, 0.042710304, 0, 0, 0, 0, -1, 0, 0, 0
4913330, 0.1337738, 0.70744324, 0.10884094, 4913330, 0.72060525, -0.6420188, 0.09709358, 0, 0, 0, 0, -1, 0, 0, 0
4943848, 0.10934448, 0.77098083, 0.052627563, 4943848, 0.464728, -0.38305283, 0.05213785, 0, 0, 0, 0, -1, 0, 0, 0
4974365, 0.08125305, 0.85406494, -0.0010986328, 4974365, 0.13436198, -0.10928297, -0.42601395, 0, 0, 0, 0, -1, 0, 0, 0
4943848, 0.034835815, 0.94081116, -0.029190063, 4943848, 0.42470205, -0.30883265, -0.8906565, 0, 0, 0, 0, -1, 0, 0, 0
4943848, -0.16062927, 0.86260986, -0.03164673, 4943848, 0.42470205, -0.30883265, -0.8906565, 0, 0, 0, 0, -1, 0, 0, 0
4943848, -0.16062927, 0.86260986, -0.03164673, 4943848, -1.0405769, -0.46691656, -1.3360696, 0, 0, 0, 0, -1, 0, 0, 0
4943848, -0.25593567, 0.8821564, -0.037750244, 4943848, -1.9594214, -0.16322422, -1.3470755, 0, 0, 0, 0, -1, 0, 0, 0
4913330, -0.34388733, 0.87361145, 0.01965332, 4913330, -2.686131, 0.15237331, -1.088614, 0, 0, 0, 0, -1, 0, 0, 0
4943848, -0.40496826, 0.78930664, 0.12960815, 4943848, -3.184647, 0.7743521, -4.4379115, 0, 0, 0, 0, -1, 0, 0, 0
4943847, -0.38787842, 0.020843506, 0.30308533, 4943848, -3.184647, 0.7743521, -4.4379115, 0, 0, 0, 0, -1, 0, 0, 0
4943848, -0.37931824, -0.25769043, 0.33607483, 4974365, -3.0136325, 1.9440017, -4.7230163, 0, 0, 0, 0, -1, 0, 0, 0
4943848, -0.3157959, -0.41651917, 0.34951782, 4943847, -1.8100085, 0.41471148, 0.38881207, 1, 515, 871, 1, -1, 56345417, 0, 21746823
4943848, -0.3157959, -0.41651917, 0.34951782, 4943848, 0.6165067, -0.064974785, 0.7001152, 0, 0, 0, 1, -1, 0, 0, 0
4943847, -0.2571411, -0.5509033, 0.30064392, 4943847, 1.0712699, 0.14240646, 0.35570621, 0, 0, 0, 1, -1, 0, 0, 0
4943848, -0.24493408, -0.52279663, 0.23590088, 4943848, 1.2040589, 0.102413654, -0.3079729, 0, 0, 0, 1, -1, 0, 0, 0
4943848, -0.2791443, -0.37374878, 0.18457031, 4943848, 1.0079327, 0.14175701, -0.6403003, 0, 0, 0, 1, -1, 0, 0, 0
4943848, -0.40620422, -0.10986328, 0.11982727, 4943848, 1.0079327, 0.14175701, -0.6403003, 0, 0, 0, 1, -1, 0, 0, 0
4943848, -0.40620422, -0.10986328, 0.11982727, 4943848, 0.74676025, 0.56047916, 0.38886642, 0, 0, 0, 1, -1, 0, 0, 0
4943848, -0.45874023, -0.008468628, 0.11494446, 4943848, 0.6093534, 0.6933222, 0.40806007, 0, 0, 0, 1, -1, 0, 0, 0
4943848, -0.50271606, 0.11981201, 0.09539795, 4943848, 0.6093534, 0.6933222, 0.40806007, 0, 0, 0, 1, -1, 0, 0, 0
4943848, -0.50271606, 0.11981201, 0.09539795, 4943848, 0.35299915, 0.23944092, 0.7758479, 0, 0, 0, 1, -1, 0, 0, 0
4943848, -0.52960205, 0.25909424, 0.09539795, 4943848, 0.2844295, -0.032228947, 1.1462798, 0, 0, 0, 1, -1, 0, 0, 0
7049560, -0.5051575, 0.4179077, 0.057525635, 7049560, 0.13761723, -0.041484833, 1.4479427, 0, 0, 0, 1, -1, 0, 0, 0
5035401, -0.46850586, 0.416687, 0.041641235, 5035401, -0.19993895, 0.059943676, 1.7932549, 0, 0, 0, 1, -1, 0, 0, 0
5035400, -0.41108704, 0.4093628, 0.034301758, 5035400, -0.53499603, 0.16293144, 2.0073519, 0, 0, 0, 1, -1, 0, 0, 0
5035400, -0.32434082, 0.3995819, 0.045303345, 5035400, -0.79363775, 0.24373865, 2.033299, 0, 0, 0, 1, -1, 0, 0, 0
5004883, -0.22172546, 0.3788147, 0.06851196, 5004883, -0.90519005, 0.25332785, 1.9167767, 0, 0, 0, 1, -1, 0, 0, 0
4974365, -0.12886047, 0.3580475, 0.10272217, 4974365, -0.7883818, 0.25005198, 1.593368, 0, 0, 0, 1, -1, 0, 0, 0
4943848, -0.053131104, 0.3311615, 0.106399536, 4943848, -0.7183352, 0.2666583, 1.1928468, 0, 0, 0, 1, -1, 0, 0, 0
4943848, 0.007949829, 0.31407166, 0.09906006, 4943848, -0.73988616, 0.124053, 1.0173907, 0, 0, 0, 1, -1, 0, 0, 0
4943847, 0.06048584, 0.33972168, 0.085632324, 4943847, -0.9308737, -0.22958851, 0.5848484, 0, 0, 0, 1, -1, 0, 0, 0
4943848, 0.073913574, 0.3494873, 0.09051514, 4943848, -0.9090568, -0.12080288, 0.21434164, 0, 0, 0, 1, -1, 0, 0, 0
4943848, 0.08979797, 0.036727905, 0.08439636, 4943848, -0.94390863, 0.21275902, 0.1139369, 0, 0, 0, 1, -1, 0, 0, 0
4913330, 0.08979797, 0.25297546, 0.08439636, 4913330, -0.8002283, 0.49566603, -0.16074085, 0, 0, 0, 1, -1, 0, 0, 0
4943847, 0.082473755, 0.13446045, 0.09539795, 4943847, -0.57455945, 0.7759023, -0.4380474, 0, 0, 0, -1, -1, 93308281, 0, 0
4974366, 0.059249878, 0.053833008, 0.09051514, 4974366, -0.46102285, 0.8187318, -0.5205865, 0, 0, 0, -1, -1, 0, 0, 0
4943847, 0.034835815, 0.025726318, 0.081954956, 4943847, -0.48255843, 0.8082409, -0.6479707, 0, 0, 0, -1, -1, 0, 0, 0
4943848, 0.004272461, 0.015960693, 0.05508423, 4943848, -0.57778585, 0.8044672, -0.8418269, 0, 0, 0, -1, -1, 0, 0, 0
4943848, -0.053131104, -0.015792847, 0.023330688, 4943848, -0.6621667, 0.73628664, -0.93791914, 0, 0, 0, -1, -1, 0, 0, 0
4943847, -0.12031555, -0.052444458, 1.0681152E-4, 4943847, -0.7260917, 0.63948774, -0.931921, 0, 0, 0, -1, -1, 0, 0, 0
4913330, -0.18751526, -0.091537476, -0.034088135, 4913330, -0.7073052, 0.52947235, -1.0368657, 0, 0, 0, -1, -1, 0, 0, 0
4974366, -0.26937866, -0.10986328, -0.062194824, 4974366, -0.53588647, 0.45201826, -1.3202362, 0, 0, 0, -1, -1, 0, 0, 0
4943847, -0.3353424, -0.107406616, -0.08784485, 4943847, -0.39582688, 0.3357749, -1.6130652, 0, 0, 0, -1, -1, 0, 0, 0
4943848, -0.41108704, -0.12452698, -0.10494995, 4943848, -0.4716273, 0.35627127, -1.9397621, 0, 0, 0, -1, -1, 0, 0, 0
4943848, -0.48194885, -0.13917542, -0.13548279, 4943848, -0.4942302, 0.34119606, -2.1043248, 0, 0, 0, -1, -1, 0, 0, 0
4943847, -0.56869507, -0.15750122, -0.1538086, 4943847, -0.5478409, 0.30841827, -2.154264, 0, 0, 0, -1, -1, 0, 0, 0
4943848, -0.6591034, -0.1795044, -0.1538086, 4943848, -0.54210126, 0.29471588, -2.0811844, 0, 0, 0, -1, -1, 0, 0, 0
4943848, -0.7531738, -0.17706299, -0.16725159, 4943848, -0.5014779, 0.33520603, -1.9810009, 0, 0, 0, -1, -1, 0, 0, 0
4943847, -0.84602356, -0.19050598, -0.19657898, 4943847, -0.343392, 0.42311335, -1.7818518, 0, 0, 0, -1, -1, 0, 0, 0
5035400, -1.0146332, -0.2503662, -0.31629944, 4943847, -0.343392, 0.42311335, -1.7818518, 0, 0, 0, -1, -1, 0, 0, 0
5035400, -1.0146332, -0.2503662, -0.31629944, 5035400, -0.471022, -0.479321, 0.29769468, 0, 0, 0, -1, -1, 0, 0, 0
5035400, -0.79959106, -0.9455261, -0.3370819, 5035400, -0.22731793, 1.4364309, 1.4147887, 0, 0, 0, -1, -1, 0, 0, 0
5035401, -0.37443542, -1.8312683, -0.3383026, 5035401, -0.28588802, 0.83808994, 2.9680738, 0, 0, 0, -1, -1, 0, 0, 0
5035400, -0.081222534, -1.7347565, -0.38594055, 5035400, 0.35498577, 0.43035984, 3.2823834, 0, 0, 0, -1, -1, 0, 0, 0
4943848, 0.18875122, -1.5233917, -0.39814758, 4943848, 0.29496944, 0.26144075, 4.207011, 1, 180, 1301, 0, -1, 0, 0, 130399635
4943847, 0.5528412, -1.0200348, -0.4506836, 4943848, 0.29496944, 0.26144075, 4.207011, 0, 0, 0, 0, -1, 0, 0, 0
4943847, 0.5528412, -1.0200348, -0.4506836, 4943847, -1.0835708, -0.15947199, 1.2228799, 0, 0, 0, 0, -1, 0, 0, 0
4943848, 0.49786377, -0.8771057, -0.37738037, 4943847, -1.0835708, -0.15947199, 1.2228799, 0, 0, 0, 0, -1, 0, 0, 0
4943848, 0.49786377, -0.8771057, -0.37738037, 4943848, -1.6804938, -0.008618832, -0.062480927, 0, 0, 0, 0, -1, 0, 0, 0
4913330, 0.18510437, -0.6144409, -0.19657898, 4943848, -1.6804938, -0.008618832, -0.062480927, 0, 0, 0, 0, -1, 0, 0, 0
4974366, 0.062927246, -0.4947052, -0.106170654, 4943847, -1.422739, -0.07894182, -0.0025873184, 0, 0, 0, 0, -1, 0, 0, 0
4943847, -0.044570923, -0.43849182, -0.062194824, 4913330, -1.1297185, 0.008534431, -0.09142685, 0, 0, 0, 0, -1, 0, 0, 0
4943847, -0.044570923, -0.43849182, -0.062194824, 4943847, -0.038161814, -0.362473, 0.6057229, 0, 0, 0, 0, -1, 0, 0, 0
4943848, -0.08000183, -0.43728638, -0.051193237, 4943848, 0.50130033, -0.586565, 1.0131454, 0, 0, 0, 0, -1, 0, 0, 0
4943848, -0.09710693, -0.43972778, -0.12083435, 4943848, 0.50130033, -0.586565, 1.0131454, 0, 0, 0, 0, -1, 0, 0, 0
4943848, -0.09710693, -0.43972778, -0.12083435, 4943848, 1.3545432, -0.7428589, 1.0598569, 0, 0, 0, 0, -1, 0, 0, 0
4913330, -0.08244324, -0.4311676, -0.18437195, 4913330, 1.620369, -0.69674635, 0.84848404, 0, 0, 0, 0, -1, 0, 0, 0
4974365, -0.08000183, -0.3859558, -0.25888062, 4974365, 1.6314526, -0.53845024, 0.33205414, 0, 0, 0, 0, -1, 0, 0, 0
4943848, -0.08732605, -0.32733154, -0.34684753, 4943848, 1.3689971, -0.36540174, -0.38859463, 0, 0, 0, 0, -1, 0, 0, 0
4943848, -0.12765503, -0.23692322, -0.41282654, 4943848, 0.7114072, -0.3037963, -0.8527427, 0, 0, 0, 0, -1, 0, 0, 0
4943847, -0.20339966, -0.123291016, -0.45680237, 4943847, 0.27557346, -0.30785084, -1.109745, 0, 0, 0, 0, -1, 0, 0, 0
4943848, -0.27426147, -0.123291016, -0.48368835, 4943848, -0.119567245, -0.2605753, -1.1041884, 0, 0, 0, 0, -1, 0, 0, 0
4943848, -0.27426147, -0.027999878, -0.44947815, 4943848, -0.44224334, -0.3026514, -0.95904684, 0, 0, 0, 0, -1, 0, 0, 0
4943847, -0.3524475, 0.041610718, -0.44947815, 4943847, -0.8662044, -1.3392844, 1.0890927, 0, 0, 0, 0, -1, 0, 0, 0
4943848, -0.37931824, 0.105148315, -0.38716125, 4943848, -0.94327796, -0.40385246, 0.95948076, 0, 0, 0, 0, -1, 0, 0, 0
4943848, -0.042129517, 0.22732544, -0.33340454, 4943848, -1.2772489, 0.3991232, 0.14966631, 0, 0, 0, 0, -1, 0, 0, 0
7019043, 0.37690735, -0.18803406, -0.17701721, 7019043, -1.1912525, -0.072695255, 0.37428093, 0, 0, 0, 0, -1, 0, 0, 0
5035400, 0.5235138, -0.38841248, -0.13427734, 5035400, -0.6794405, 0.06872177, -0.26629734, 1, 657, 1360, 1, -1, 86224479, 0, 33395052
5065918, 0.5565033, -0.5325775, -0.14526367, 5065918, -0.3782521, 0.142169, -0.7271466, 0, 0, 0, 1, -1, 0, 0, 0
5035400, 0.5259552, -0.52767944, -0.16113281, 5035400, -0.27834147, 0.08714771, -0.47090673, 0, 0, 0, 1, -1, 0, 0, 0
5004883, 0.46365356, -0.45317078, -0.15504456, 5004883, -0.2674531, -0.013162136, -0.8499398, 0, 0, 0, 1, -1, 0, 0, 0
4974365, 0.35858154, -0.43605042, -0.13671875, 4974365, -0.37402135, -0.16859055, -0.9949832, 0, 0, 0, 1, -1, 0, 0, 0
4943848, 0.2425232, -0.45925903, -0.10983276, 4943848, -0.5683452, -0.21487808, -0.78395367, 0, 0, 0, 1, -1, 0, 0, 0
4943848, 0.1313324, -0.4898224, -0.07562256, 4943848, -0.6483137, -0.1801014, -0.5991535, 0, 0, 0, 1, -1, 0, 0, 0
4943847, 0.04336548, -0.4898224, -0.04751587, 4943847, -0.44184688, -0.18925476, -0.5092187, 0, 0, 0, 1, -1, 0, 0, 0
4943848, 0.04336548, -0.45681763, -0.04751587, 4943848, 0.018275619, -0.2724924, -0.38845778, 0, 0, 0, 1, -1, 0, 0, 0
4943848, -0.07878113, -0.37252808, -0.03652954, 4943848, 0.5955258, -0.31038237, -0.18343353, 0, 0, 0, 1, -1, 0, 0, 0
4943847, -0.15330505, -0.27113342, -0.05607605, 4943847, 0.68165994, -0.3012867, 0.08598852, 0, 0, 0, 1, -1, 0, 0, 0
4913330, -0.2204895, -0.16362, -0.086624146, 4913330, 0.54176474, -0.13072777, 0.26916456, 0, 0, 0, 1, -1, 0, 0, 0
4974366, -0.28526306, -0.04144287, -0.11349487, 4974366, 0.3135788, 0.091677666, 0.50549746, 0, 0, 0, 1, -1, 0, 0, 0
4943847, -0.32556152, 0.067276, -0.12205505, 4943847, 0.09049326, 0.16707373, 0.7760887, 0, 0, 0, 1, -1, 0, 0, 0
4943848, -0.34388733, 0.15646362, -0.12083435, 4943848, 0.015996814, 0.16625977, 0.7349682, 0, 0, 0, 1, -1, 0, 0, 0
4943848, -0.3304596, 0.23097229, -0.12083435, 4943848, -0.01103273, 0.034894943, 0.56388044, 0, 0, 0, 1, -1, 0, 0, 0
4943847, -0.32434082, 0.25053406, -0.12205505, 4943847, -0.12634796, -0.11303425, 0.1630168, 0, 0, 0, 1, -1, 0, 0, 0
4943848, -0.32434082, 0.20532227, -0.11227417, 4943848, -0.5196855, -0.35944128, -0.35295916, 0, 0, 0, 1, -1, 0, 0, 0
4943848, -0.3341217, 0.07582092, -0.08906555, 4943848, -0.5988666, -0.3286085, -0.7984443, 0, 0, 0, 1, -1, 0, 0, 0
4943847, -0.34266663, -0.1000824, -0.08784485, 4943847, -0.6039975, -0.37270355, -0.82018137, 0, 0, 0, 1, -1, 0, 0, 0
4913330, -0.2986908, -0.20271301, -0.06951904, 4913330, -0.6377262, -0.29911184, -0.111029625, 0, 0, 0, 1, -1, 0, 0, 0
4974366, -0.21195984, -0.18682861, -0.059753418, 4974366, -0.41580975, -0.12949848, 0.078959465, 0, 0, 0, 1, -1, 0, 0, 0
4943847, -0.14230347, -0.1171875, -0.041427612, 4943847, -0.35234493, 0.08748007, -0.028445244, 0, 0, 0, -1, -1, 72113594, 0, 0
4943848, -0.05923462, -0.02923584, -0.051193237, 4943848, -0.35799217, 0.0840292, -0.07653427, 0, 0, 0, -1, -1, 0, 0, 0
4943848, 0.04826355, -0.051208496, -0.049972534, 4943848, -0.47913736, -0.060631752, -2.246449, 0, 0, 0, -1, -1, 0, 0, 0
4943847, 0.18630981, -0.9296417, -0.021865845, 4943847, -0.36764303, -0.18487883, -4.3299866, 0, 0, 0, -1, -1, 0, 0, 0
5035400, 0.19854736, -1.220398, -0.10739136, 4943847, -0.36764303, -0.18487883, -4.3299866, 1, 115, 977, 0, -1, 0, 0, 49930573
5035400, 0.19854736, -1.220398, -0.10739136, 5035400, 0.25645426, 0.5369315, 0.36013556, 0, 0, 0, 0, -1, 0, 0, 0
5035401, 0.20951843, -0.8306732, -0.09516907, 5035401, 0.5027993, 0.24824667, 0.12702703, 0, 0, 0, 0, -1, 0, 0, 0
5035400, 0.20343018, -0.4128418, -0.086624146, 5035400, 0.27161914, 0.00934124, -0.47012663, 0, 0, 0, 0, -1, 0, 0, 0
5035400, 0.15821838, -0.25524902, -0.08052063, 5035400, -0.049839735, -0.17985344, -0.53305817, 0, 0, 0, 0, -1, 0, 0, 0
4943848, -0.014038086, -0.42260742, -0.024307251, 5035400, -0.049839735, -0.17985344, -0.53305817, 0, 0, 0, 0, -1, 0, 0, 0
4943848, -0.014038086, -0.42260742, -0.024307251, 4943848, 0.09610358, 0.11843681, 0.82362604, 0, 0, 0, 0, -1, 0, 0, 0
4943848, -0.14718628, -0.4983673, 0.081954956, 4943848, 0.09610358, 0.11843681, 0.82362604, 0, 0, 0, 0, -1, 0, 0, 0
4943848, -0.13009644, -0.45681763, 0.10517883, 4943847, 0.17030174, 0.27637482, 1.7164783, 0, 0, 0, 0, -1, 0, 0, 0
4943848, -0.13009644, -0.45681763, 0.10517883, 4943848, 0.6606679, 0.45808506, 1.9013324, 0, 0, 0, 0, -1, 0, 0, 0
4943848, 0.007949829, -0.14285278, 0.09051514, 4943848, 0.6606679, 0.45808506, 1.9013324, 0, 0, 0, 0, -1, 0, 0, 0
4943848, 0.007949829, -0.14285278, 0.09051514, 4943848, 0.5922606, 0.120075226, 1.8500595, 0, 0, 0, 0, -1, 0, 0, 0
4943847, 0.14601135, 0.117370605, 0.07707214, 4943848, 0.5922606, 0.120075226, 1.8500595, 0, 0, 0, 0, -1, 0, 0, 0
4943847, 0.14601135, 0.117370605, 0.07707214, 4943847, 0.03001725, -0.43335247, 1.0845375, 0, 0, 0, 0, -1, 0, 0, 0
4943848, 0.19975281, 0.25541687, 0.081954956, 4943848, -0.22592676, -0.47866583, 0.9209318, 0, 0, 0, 0, -1, 0, 0, 0
4943848, 0.22296143, 0.39224243, 0.11494446, 4943848, -0.6605262, -0.52396107, 0.6555567, 0, 0, 0, 0, -1, 0, 0, 0
4943847, 0.2266388, 0.50587463, 0.15527344, 4943847, -0.8181249, -0.39358473, 0.3283844, 0, 0, 0, 0, -1, 0, 0, 0
4943848, 0.1789856, 0.6427002, 0.22369385, 4943847, -0.8181249, -0.39358473, 0.3283844, 0, 0, 0, 0, -1, 0, 0, 0
4943847, 0.13621521, 0.6207123, 0.2456665, 4943848, -0.86004543, -0.35196257, 0.047835827, 0, 0, 0, 0, -1, 0, 0, 0
4943848, 0.078811646, 0.6207123, 0.2762146, 4943848, -0.93013215, -0.2952857, -0.069749355, 0, 0, 0, 0, -1, 0, 0, 0
4913330, 0.078811646, 0.5327606, 0.2762146, 4943847, -0.9086412, -0.20835447, -0.15541172, 0, 0, 0, 0, -1, 0, 0, 0
4913330, 0.078811646, 0.5327606, 0.2762146, 4913330, -1.2585758, -0.049238205, -0.88574934, 0, 0, 0, 0, -1, 0, 0, 0
4974365, 0.050704956, 0.3788147, 0.2884369, 4974365, -2.3704257, -0.71456766, -2.7139974, 0, 0, 0, 0, -1, 0, 0, 0
4943848, 0.04336548, 0.38735962, 0.3116455, 4943848, -1.5813496, -0.22462225, -3.597558, 0, 0, 0, 0, -1, 0, 0, 0
4913330, 0.005508423, 0.9346924, 0.36540222, 4913330, -0.4014385, -0.21358919, -3.6145558, 0, 0, 0, -1, -1, 92352292, 0, 0
4974365, -0.11177063, 0.9627838, 0.40081787, 4974365, -0.61910486, -0.04726982, -2.6130185, 1, 943, 913, 0, -1, 0, 0, 38938802
4943848, -0.22537231, 0.61216736, 0.38739014, 4943848, 0.10241264, 0.75991774, -1.762824, 0, 0, 0, 0, -1, 0, 0, 0
7049560, -0.3487854, -0.04510498, 0.25054932, 7049560, 0.9240221, 1.2527304, -1.2317171, 0, 0, 0, 0, -1, 0, 0, 0
5035401, -0.39642334, -0.15383911, 0.17359924, 5035401, 1.1926674, 1.1418252, -0.45185328, 0, 0, 0, 0, -1, 0, 0, 0
5035400, -0.4147644, -0.1513977, 0.101501465, 5035400, 1.0352621, 0.84147406, 0.36592007, 0, 0, 0, 0, -1, 0, 0, 0
5035401, -0.39154053, -0.12208557, 0.046539307, 5035401, 0.63524234, 0.5050459, 1.0642705, 0, 0, 0, 0, -1, 0, 0, 0
5035400, -0.35488892, -0.10986328, 0.020874023, 5035400, 0.24850592, 0.22819376, 1.7382112, 0, 0, 0, 0, -1, 0, 0, 0
4943848, -0.29379272, -0.09764099, 0.009887695, 4943848, 0.02691704, -0.14262676, 2.2026262, 0, 0, 0, 0, -1, 0, 0, 0
4943847, -0.29379272, -0.09764099, 0.008651733, 4943847, -0.018906608, -0.24635363, 2.4977145, 0, 0, 0, 0, -1, 0, 0, 0
4943848, -0.22416687, -0.06465149, 0.008651733, 4943848, -0.07937433, -0.13980865, 2.8454757, 0, 0, 0, 0, -1, 0, 0, 0
4943848, -0.12519836, -0.015792847, 0.022094727, 4943848, -0.103830606, -0.068259716, 3.2106647, 0, 0, 0, 0, -1, 0, 0, 0
4943847, -0.025024414, 0.03916931, 0.03553772, 4943847, -0.1287423, 0.030199528, 3.3194027, 0, 0, 0, 0, -1, 0, 0, 0
4943848, 0.10202026, 0.07826233, 0.05630493, 4943848, -0.06599687, 0.1251316, 3.5547786, 0, 0, 0, 0, -1, 0, 0, 0
4943848, 0.23396301, 0.13690186, 0.06730652, 4943848, -0.035265237, 0.20401049, 3.6652164, 0, 0, 0, 0, -1, 0, 0, 0
4943847, 0.37446594, 0.19920349, 0.08073425, 4943847, -0.08558653, 0.28822088, 3.2347302, 0, 0, 0, 0, -1, 0, 0, 0
4943848, 0.51374817, 0.21388245, 0.09661865, 4943848, -0.31647113, 0.25847292, 2.4774275, 0, 0, 0, 0, -1, 0, 0, 0
4943847, 0.6273651, 0.15158081, 0.11860657, 4943847, -1.119529, -0.24802828, 1.5038872, 0, 0, 0, 0, -1, 0, 0, 0
4943848, 0.6933441, 0.061172485, 0.18824768, 4943848, -1.7150321, -0.52209044, 0.7851486, 0, 0, 0, 0, -1, 0, 0, 0
4943848, 0.736084, -0.02067566, 0.26643372, 4943848, -1.2021364, -0.5187502, 0.12148476, 0, 0, 0, 0, -1, 0, 0, 0
4913330, 0.75320435, -0.10864258, 0.33851624, 4913330, -0.4122019, -0.6383338, -0.5098705, 0, 0, 0, 0, -1, 0, 0, 0
4974365, 0.7800751, -0.20639038, 0.3788452, 4974365, 0.8768307, -0.76557875, -4.0112505, 0, 0, 0, 0, -1, 0, 0, 0
4943848, 0.8655853, -0.62786865, 0.35684204, 4943848, 1.9302382, 1.4901891, -5.798024, 0, 0, 0, 0, -1, 0, 0, 0
4943847, 0.75930786, -0.4788208, 0.17359924, 4943847, 1.0619688, 1.7644229, -3.0226827, 0, 0, 0, -1, -1, 76676146, 0, 0
4943848, 0.6591339, -0.13796997, 0.034301758, 4943848, 0.84068644, 1.011394, -2.065795, 0, 0, 0, -1, -1, 0, 0, 0
4943848, 0.571167, 0.108810425, -0.01210022, 4943848, 0.76123714, 0.4935546, -1.5604167, 1, 338, 979, 0, -1, 0, 0, 49562448
4943847, 0.4758606, 0.19920349, -0.06463623, 4943847, 0.25885344, 0.14860868, -1.9627681, 0, 0, 0, 0, -1, 0, 0, 0
4943848, 0.35002136, 0.07215881, -0.06829834, 4943848, -0.31215876, -0.1582632, -2.5916924, 0, 0, 0, 0, -1, 0, 0, 0
4943848, 0.18998718, -0.086639404, -0.018218994, 4943848, -0.53101397, -0.4604764, -2.3478737, 0, 0, 0, 0, -1, 0, 0, 0
4943847, 0.034835815, -0.06587219, 0.053863525, 4943847, -0.59368473, -0.6509743, -1.291276, 0, 0, 0, 0, -1, 0, 0, 0
5035400, -0.077560425, 0.29574585, 0.1662445, 4943847, -0.59368473, -0.6509743, -1.291276, 0, 0, 0, 0, -1, 0, 0, 0
5035400, -0.077560425, 0.29574585, 0.1662445, 5035400, -0.005238563, -0.37968016, 1.0674834, 0, 0, 0, 0, -1, 0, 0, 0
5035401, -0.06289673, 0.416687, 0.19436646, 5035401, 0.019086048, -0.21826172, 1.6350217, 0, 0, 0, 0, -1, 0, 0, 0
5035400, 0.027496338, 0.4276886, 0.20289612, 5035400, 0.06624226, -0.16944313, 1.9480224, 0, 0, 0, 0, -1, 0, 0, 0
4943848, 0.24128723, 0.3751526, 0.17480469, 5035400, 0.06624226, -0.16944313, 1.9480224, 0, 0, 0, 0, -1, 0, 0, 0
4943848, 0.24128723, 0.3751526, 0.17480469, 4943848, -0.34802762, -0.13572836, 1.9089613, 0, 0, 0, 0, -1, 0, 0, 0
4943848, 0.32070923, 0.3494873, 0.15281677, 4943848, -0.71462846, -0.14050388, 1.943676, 0, 0, 0, 0, -1, 0, 0, 0
4943847, 0.38546753, 0.3128357, 0.13327026, 4943847, -0.9629769, -0.06402683, 1.9048781, 0, 0, 0, 0, -1, 0, 0, 0
4943848, 0.45388794, 0.2492981, 0.12716675, 4943848, -0.9809496, 0.059310436, 1.5910664, 0, 0, 0, 0, -1, 0, 0, 0
4608154, 0.45021057, 0.20411682, 0.15403748, 4943848, -0.9809496, 0.059310436, 1.5910664, 0, 0, 0, 0, -1, 0, 0, 0
4608154, 0.45021057, 0.20411682, 0.15403748, 4608154, -0.8845023, 0.19546938, -0.25525284, 0, 0, 0, 0, -1, 0, 0, 0
4943848, 0.41600037, 0.3152771, 0.18701172, 4943848, -0.52986604, 0.39194918, -0.8991842, 0, 0, 0, 0, -1, 0, 0, 0
4943847, 0.26817322, 0.49855042, 0.26278687, 4943848, -0.52986604, 0.39194918, -0.8991842, 0, 0, 0, 0, -1, 0, 0, 0
4943847, 0.26817322, 0.49855042, 0.26278687, 4943847, -0.63558793, -0.83843136, -2.3358698, 0, 0, 0, 0, -1, 0, 0, 0
4943848, 0.18998718, 0.46922302, 0.2945404, 4943848, 0.11299303, -0.9640999, -3.3088703, 0, 0, 0, -1, -1, 56233594, 0, 0
4943848, 0.115448, 0.55841064, 0.30308533, 4943848, -0.41078892, -0.27953243, -7.9128265, 0, 0, 0, -1, -1, 0, 0, 0
4943847, -0.042129517, 0.90415955, 0.3043213, 4943847, 1.1612366, 0.34073687, -6.2115836, 0, 0, 0, -1, -1, 0, 0, 0
4943848, -0.2705841, 0.61094666, 0.26278687, 4943848, 1.3682978, 0.3508253, -4.7313657, 1, 800, 826, 0, -1, 0, 0, 39583594
4943847, -0.4489746, 0.18089294, 0.15527344, 4943848, 1.3682978, 0.3508253, -4.7313657, 0, 0, 0, 0, -1, 0, 0, 0
