GYRO_DIFF, GYRO_X, GYRO_Y, GYRO_Z, ACC_DIFF, ACC_X, ACC_Y, ACC_Z, TOUCH_DOWN, TOUCH_X, TOUCH_Y, ID1, ID2 
66440155064898, -0.70526123, 0.008148193, -0.37452698, 66440155064898, -0.56921977, -1.5973492, 0.32601404, 0, 0, 0, -1, -1, 0, 0, 0
5035400, -0.71502686, 0.08509827, -0.39649963, 5035400, -0.5353596, -1.835516, 0.79831934, 0, 0, 0, -1, -1, 0, 0, 0
5035401, -0.69914246, 0.1620636, -0.41238403, 5035401, -0.6034426, -2.09734, 1.2824554, 0, 0, 0, -1, -1, 0, 0, 0
5035400, -0.64660645, 0.21702576, -0.43806458, 5035400, -0.48794526, -2.3739882, 1.6771975, 0, 0, 0, -1, -1, 0, 0, 0
4913330, -0.64660645, 0.21702576, -0.46492004, 4913330, -0.6026496, -2.712914, 2.0017529, 0, 0, 0, -1, -1, 0, 0, 0
4974366, -0.57818604, 0.24147034, -0.46492004, 4974366, -1.2670941, -2.6467547, 2.4421244, 0, 0, 0, -1, -1, 0, 0, 0
4943847, -0.47921753, 0.29400635, -0.4637146, 4943847, -1.9994674, -2.3949366, 2.6889763, 0, 0, 0, -1, -1, 0, 0, 0
4913330, -0.35461426, 0.36975098, -0.43315125, 4913330, -2.6448061, -2.0767431, 2.7616634, 0, 0, 0, -1, -1, 0, 0, 0
4943848, -0.21290588, 0.43450928, -0.3647461, 4943848, -3.0183125, -1.8923459, 2.632512, 0, 0, 0, -1, -1, 0, 0, 0
4974365, -0.091934204, 0.45283508, -0.27189636, 4974365, -2.8730552, -1.8405366, 2.065187, 0, 0, 0, -1, -1, 0, 0, 0
4943848, 0.030212402, 0.41618347, -0.17904663, 4943848, -2.450752, -1.8639307, 1.3680716, 0, 0, 0, -1, -1, 0, 0, 0
4943847, 0.10595703, 0.31356812, -0.0849762, 4943847, -2.0280216, -1.8088784, 0.6538029, 0, 0, 0, -1, -1, 0, 0, 0
4943848, 0.14138794, 0.18283081, -0.023895264, 4943848, -1.6628935, -1.6044908, 0.031522274, 0, 0, 0, -1, -1, 0, 0, 0
4943848, 0.13038635, 0.064315796, 0.012741089, 4943848, -1.4499921, -1.354291, -0.48254967, 0, 0, 0, -1, -1, 0, 0, 0
4943847, 0.09007263, -0.044387817, 0.023742676, 4943847, -1.2194585, -1.1083474, -0.88775253, 0, 0, 0, -1, -1, 0, 0, 0
4943848, 0.004562378, -0.115249634, 0.039627075, 4943848, -1.0499308, -0.883842, -0.94611025, 0, 0, 0, -1, -1, 0, 0, 0
4943848, -0.07728577, -0.15679932, 0.044509888, 4943848, -0.9341523, -0.7645674, -0.85627794, 0, 0, 0, -1, -1, 0, 0, 0
4943847, -0.14202881, -0.16412354, 0.039627075, 4943847, -0.89299756, -0.7235036, -0.6376662, 0, 0, 0, -1, -1, 0, 0, 0
4943848, -0.2019043, -0.123794556, 0.04084778, 4943848, -0.9008361, -0.78336906, -0.29003906, 0, 0, 0, -1, -1, 0, 0, 0
4943848, -0.23243713, -0.07003784, 0.031066895, 4943848, -1.0166675, -0.84759617, 0.175066, 0, 0, 0, -1, -1, 0, 0, 0
4943847, -0.23731995, -0.008972168, 0.02130127, 4943847, -1.1160687, -0.94466114, 0.52413845, 0, 0, 0, -1, -1, 0, 0, 0
4943848, -0.20922852, 0.028900146, 0.015182495, 4943848, -1.2153584, -0.976315, 0.70790815, 0, 0, 0, -1, -1, 0, 0, 0
4943848, -0.1725769, 0.03378296, 0.009094238, 4943848, -1.2879618, -0.9431963, 0.8046565, 0, 0, 0, -1, -1, 0, 0, 0
4913330, -0.11759949, -0.0052948, -0.0031280518, 4913330, -1.3095366, -0.83895254, 0.7812352, 0, 0, 0, -1, -1, 0, 0, 0
4943847, -0.05039978, -0.060272217, -0.005569458, 4943847, -1.2868454, -0.7158632, 0.7335782, 0, 0, 0, -1, -1, 0, 0, 0
4974366, -0.007659912, -0.13235474, 5.493164E-4, 4974366, -1.1915548, -0.5370512, 0.7270498, 0, 0, 0, -1, -1, 0, 0, 0
7049560, 0.04121399, -0.17512512, 0.012741089, 7049560, -0.9018644, -0.2783847, 0.9794378, 0, 0, 0, -1, -1, 0, 0, 0
5035401, 0.083969116, -0.19953918, 0.028625488, 5035401, -0.640541, -0.14519262, 1.185597, 0, 0, 0, -1, -1, 0, 0, 0
5035400, 0.11695862, -0.19709778, 0.031066895, 5035400, -0.50718206, -0.10482454, 1.2658725, 0, 0, 0, -1, -1, 0, 0, 0
5035400, 0.18048096, -0.17021179, 0.044509888, 5035400, -0.50718206, -0.10482454, 1.2658725, 0, 0, 0, -1, -1, 0, 0, 0
4974365, 0.22813416, -0.15068054, 0.028625488, 5004883, -0.28940284, -0.10989046, 1.2532935, 0, 0, 0, -1, -1, 0, 0, 0
4943848, 0.26844788, -0.12135315, 0.020065308, 5035400, -0.14977616, -0.07973766, 1.1679964, 0, 0, 0, -1, -1, 0, 0, 0
4943848, 0.26844788, -0.12135315, 0.020065308, 4943848, -0.1401779, -0.107896805, 0.76639843, 0, 0, 0, -1, -1, 0, 0, 0
4943848, 0.2928772, -0.07859802, 0.012741089, 4943848, -0.26110768, -0.10543108, 0.57684135, 0, 0, 0, -1, -1, 0, 0, 0
4943848, 0.3099823, 0.03378296, 0.016418457, 4943848, -0.26110768, -0.10543108, 0.57684135, 0, 0, 0, -1, -1, 0, 0, 0
4943848, 0.3099823, 0.03378296, 0.016418457, 4943848, -0.38198656, -0.12726879, 0.09513664, 0, 0, 0, -1, -1, 0, 0, 0
4943848, 0.29777527, 0.044784546, 0.023742676, 4943848, -0.50171274, -0.12598944, -0.11666441, 0, 0, 0, -1, -1, 0, 0, 0
4943847, 0.28677368, 0.03010559, 0.023742676, 4943847, -0.60034734, -0.19245005, -0.25426722, 0, 0, 0, -1, -1, 0, 0, 0
4913330, 0.21469116, 0.011795044, 0.035949707, 4943847, -0.60034734, -0.19245005, -0.25426722, 0, 0, 0, -1, -1, 0, 0, 0
4913330, 0.21469116, 0.011795044, 0.035949707, 4913330, -0.52416885, -0.24000311, -0.44401598, 0, 0, 0, -1, -1, 0, 0, 0
4943847, 0.13162231, 0.03378296, 0.06161499, 4913330, -0.52416885, -0.24000311, -0.44401598, 0, 0, 0, -1, -1, 0, 0, 0
4943848, 0.07296753, 0.07043457, 0.067718506, 4943848, -0.63609517, -0.28126526, -0.53517914, 0, 0, 0, -1, -1, 0, 0, 0
4943848, 0.07296753, 0.07043457, 0.071395874, 4943847, -0.68002474, -0.27782345, -0.57007265, 0, 0, 0, -1, -1, 0, 0, 0
4943848, 0.07296753, 0.07043457, 0.071395874, 4943848, -0.4348415, -0.23445988, -0.33279848, 0, 0, 0, -1, -1, 0, 0, 0
4943847, -0.021072388, 0.09364319, 0.06161499, 4943848, -0.4348415, -0.23445988, -0.33279848, 0, 0, 0, -1, -1, 0, 0, 0
4943847, -0.021072388, 0.09364319, 0.06161499, 4943847, -0.20718826, -0.30385017, -0.027991295, 0, 0, 0, -1, -1, 0, 0, 0
4943848, -0.06996155, 0.09120178, 0.048187256, 4943848, -0.27163723, -0.293149, 0.060866356, 0, 0, 0, -1, -1, 0, 0, 0
4974365, -0.09072876, 0.07165527, 0.0493927, 4974365, -0.35550028, -0.2793622, 0.16006136, 0, 0, 0, -1, -1, 0, 0, 0
4943848, -0.100494385, 0.064315796, 0.051834106, 4943848, -0.324606, -0.24424648, 0.2182827, 0, 0, 0, -1, -1, 0, 0, 0
4943848, -0.08583069, 0.044784546, 0.054275513, 4943848, -0.24819441, -0.21021414, 0.21132612, 0, 0, 0, -1, -1, 0, 0, 0
4943847, -0.0736084, 0.020339966, 0.059173584, 4943847, -0.14797013, -0.1813407, 0.15785313, 0, 0, 0, -1, -1, 0, 0, 0
4913330, -0.051635742, -0.007736206, 0.051834106, 4913330, -0.0687169, -0.17004442, 0.06387234, 0, 0, 0, -1, -1, 0, 0, 0
4943848, -0.02230835, -0.04560852, 0.0493927, 4943848, -0.0450546, -0.19217014, 0.024079323, 0, 0, 0, -1, -1, 0, 0, 0
7049561, -0.0027618408, -0.09692383, 0.032302856, 7049561, -0.036736548, -0.18099165, -0.08941603, 0, 0, 0, -1, -1, 0, 0, 0
5065918, -0.0027618408, -0.13479614, 0.023742676, 5065918, -0.073569044, -0.17673063, -0.11494732, 0, 0, 0, -1, -1, 0, 0, 0
5035400, -0.012542725, -0.16044617, 0.023742676, 5035400, -0.14852849, -0.15906525, -0.0023965836, 0, 0, 0, -1, -1, 0, 0, 0
5035400, 0.003326416, -0.16412354, 0.018859863, 5035400, -0.19856282, -0.18031406, 0.11744881, 0, 0, 0, -1, -1, 0, 0, 0
5004883, 0.0057678223, -0.13847351, 0.022521973, 5004883, -0.28660446, -0.19726563, 0.22576952, 0, 0, 0, -1, -1, 0, 0, 0
4943848, 0.010665894, -0.11402893, 0.02986145, 4943848, -0.37636685, -0.24981022, 0.27450418, 0, 0, 0, -1, -1, 0, 0, 0
4974365, 0.01676941, -0.07737732, 0.034744263, 4974365, -0.40262038, -0.29819918, 0.48864746, 0, 0, 0, -1, -1, 0, 0, 0
4913330, 0.00944519, -0.035827637, 0.039627075, 4913330, -0.39337075, -0.25894356, 0.494514, 0, 0, 0, -1, -1, 0, 0, 0
4943848, 0.0057678223, -0.0211792, 0.046951294, 4943848, -0.4756544, -0.32409477, 0.43427086, 0, 0, 0, -1, -1, 0, 0, 0
4974365, 8.8500977E-4, -0.0065307617, 0.044509888, 4974365, -0.52387154, -0.3286047, 0.3087926, 0, 0, 0, -1, -1, 0, 0, 0
4943848, -0.024749756, -0.0052948, 0.039627075, 4943848, -0.5855448, -0.3116269, 0.19446898, 0, 0, 0, -1, -1, 0, 0, 0
4913330, -0.03451538, -0.0065307617, 0.038406372, 4913330, -0.5928825, -0.2774663, 0.099971294, 0, 0, 0, -1, -1, 0, 0, 0
4974365, -0.04185486, -0.022399902, 0.03718567, 4974365, -0.5234854, -0.19196987, 0.071391106, 0, 0, 0, -1, -1, 0, 0, 0
4913330, -0.051635742, -0.055389404, 0.035949707, 4913330, -0.48692894, -0.11179924, -0.011440277, 0, 0, 0, -1, -1, 0, 0, 0
4974365, -0.061401367, -0.08470154, 0.043289185, 4974365, -0.44794548, -0.027933598, 0.02432537, 0, 0, 0, -1, -1, 0, 0, 0
4943848, -0.06506348, -0.09082031, 0.054275513, 4943848, -0.48316723, -0.027205944, -0.015755177, 0, 0, 0, -1, -1, 0, 0, 0
4913330, -0.084609985, -0.08592224, 0.04574585, 4913330, -0.34379867, -0.028161049, -0.020104885, 0, 0, 0, -1, -1, 0, 0, 0
4943848, -0.088272095, -0.08226013, 0.032302856, 4943848, -0.34184343, -0.025153637, -0.0028533936, 0, 0, 0, -1, -1, 0, 0, 0
4943847, -0.104156494, -0.07859802, 0.0335083, 4943847, -0.27240735, -0.0324111, -0.0036320686, 0, 0, 0, -1, -1, 0, 0, 0
4943848, -0.112716675, -0.09448242, 0.032302856, 4943848, -0.29661962, -0.04424095, 0.012870789, 0, 0, 0, -1, -1, 0, 0, 0
4943848, -0.124923706, -0.10914612, 0.0335083, 4943848, -0.36618254, -0.044252396, 0.028514385, 0, 0, 0, -1, -1, 0, 0, 0
4943847, -0.12980652, -0.103027344, 0.026184082, 4943847, -0.35428238, -0.0826354, 0.0406394, 0, 0, 0, -1, -1, 0, 0, 0
4943848, -0.14324951, -0.08470154, 0.02130127, 4943848, -0.37903988, -0.08105755, 0.1261034, 0, 0, 0, -1, -1, 0, 0, 0
4943848, -0.14324951, -0.060272217, 0.027420044, 4943848, -0.33714205, -0.09115887, 0.24061823, 0, 0, 0, -1, -1, 0, 0, 0
4943847, -0.14324951, -0.040725708, 0.039627075, 4943847, -0.23995133, -0.12864208, 0.5443301, 0, 0, 0, -1, -1, 0, 0, 0
4943848, -0.14692688, -0.0211792, 0.044509888, 4943848, -0.17295903, -0.19895363, 0.54094934, 0, 0, 0, -1, -1, 0, 0, 0
4974365, -0.13348389, 0.013031006, 0.031066895, 4974365, -0.12930708, -0.21080971, 0.52987003, 0, 0, 0, -1, -1, 0, 0, 0
7049561, -0.13470459, 0.03010559, 0.027420044, 7049561, -0.17272668, -0.24174261, 0.5483799, 0, 0, 0, -1, -1, 0, 0, 0
5035401, -0.12860107, 0.019134521, 0.00541687, 7049561, -0.17272668, -0.24174261, 0.5483799, 0, 0, 0, -1, -1, 0, 0, 0
5065917, -0.12614441, 0.0105896, 0.007858276, 5035400, -0.22685358, -0.23779106, 0.5253663, 0, 0, 0, -1, -1, 0, 0, 0
5065917, -0.12614441, 0.0105896, 0.007858276, 5065917, -0.35083646, -0.26077557, 0.5529661, 0, 0, 0, -1, -1, 0, 0, 0
5004883, -0.112716675, 0.0069122314, 0.0115356445, 5004883, -0.3864205, -0.33172703, 0.59032583, 0, 0, 0, -1, -1, 0, 0, 0
4943847, -0.0736084, 0.004470825, 0.010299683, 5004883, -0.3864205, -0.33172703, 0.59032583, 0, 0, 0, -1, -1, 0, 0, 0
4943847, -0.0736084, 0.004470825, 0.010299683, 4943847, -0.40490082, -0.3564062, 0.5258684, 0, 0, 0, -1, -1, 0, 0, 0
4913330, -0.04307556, -0.011413574, 5.493164E-4, 4913330, -0.41539288, -0.36325645, 0.46691036, 0, 0, 0, -1, -1, 0, 0, 0
4943848, -0.035751343, -0.026062012, 0.012741089, 4943848, -0.45696765, -0.33235502, 0.3345437, 0, 0, 0, -1, -1, 0, 0, 0
4943848, -0.010101318, -0.040725708, 0.009094238, 4943848, -0.5197803, -0.31404066, 0.27388382, 0, 0, 0, -1, -1, 0, 0, 0
4974365, 8.8500977E-4, -0.048065186, 0.024978638, 4974365, -0.522591, -0.3132949, 0.18451262, 0, 0, 0, -1, -1, 0, 0, 0
4913330, 0.0082092285, -0.055389404, 0.034744263, 4913330, -0.5237921, -0.26336432, 0.06882191, 0, 0, 0, -1, -1, 0, 0, 0
4974365, 0.004562378, -0.087142944, 0.048187256, 4913330, -0.5237921, -0.26336432, 0.06882191, 0, 0, 0, -1, -1, 0, 0, 0
4974365, 0.004562378, -0.087142944, 0.048187256, 4974365, -0.29110056, -0.22721386, 0.15886736, 0, 0, 0, -1, -1, 0, 0, 0
4943848, -0.007659912, -0.111587524, 0.04084778, 4974365, -0.29110056, -0.22721386, 0.15886736, 0, 0, 0, -1, -1, 0, 0, 0
4943848, -0.007659912, -0.111587524, 0.04084778, 4943848, -0.078055605, -0.0865221, 0.19521332, 0, 0, 0, -1, -1, 0, 0, 0
4974365, -0.06384277, -0.099365234, 0.038406372, 4943848, -0.078055605, -0.0865221, 0.19521332, 0, 0, 0, -1, -1, 0, 0, 0
4974365, -0.06384277, -0.099365234, 0.038406372, 4974365, 0.07103895, -0.061393738, 0.43363428, 0, 0, 0, -1, -1, 0, 0, 0
4943848, -0.07850647, -0.06271362, 0.035949707, 4943848, 0.15786014, -0.10029125, 0.47383976, 0, 0, 0, -1, -1, 0, 0, 0
4943848, -0.07850647, -0.024841309, 0.009094238, 4943848, 0.10062666, -0.10591507, 0.4263773, 0, 0, 0, -1, -1, 0, 0, 0
4943848, -0.07728577, 0.005706787, -0.011657715, 4943848, 0.10062666, -0.10591507, 0.4263773, 0, 0, 0, -1, -1, 0, 0, 0
4943848, -0.07728577, 0.005706787, -0.011657715, 4943848, -0.093099594, -0.089188576, 0.3251586, 0, 0, 0, -1, -1, 0, 0, 0
4943848, -0.06384277, -4.119873E-4, -0.021453857, 4943848, -0.19169793, -0.07969141, 0.29363203, 0, 0, 0, -1, -1, 0, 0, 0
4943847, -0.05407715, 0.002029419, -0.01777649, 4943847, -0.25794965, -0.1174202, 0.2802844, 0, 0, 0, -1, -1, 0, 0, 0
4943848, -0.049194336, 0.009353638, -0.011657715, 4943848, -0.27616423, -0.13889647, 0.24014139, 0, 0, 0, -1, -1, 0, 0, 0
4943847, -0.044296265, 0.028900146, -0.0067749023, 4943848, -0.27616423, -0.13889647, 0.24014139, 0, 0, 0, -1, -1, 0, 0, 0
4943847, -0.044296265, 0.028900146, -0.0067749023, 4943847, -0.21860798, -0.21517038, 0.09853554, 0, 0, 0, -1, -1, 0, 0, 0
7019043, -0.032073975, 0.048446655, -0.009216309, 7019043, -0.28861526, -0.23897362, 0.12838936, 0, 0, 0, -1, -1, 0, 0, 0
5035401, -0.021072388, 0.06311035, -0.012893677, 5035401, -0.41341668, -0.27890873, 0.14185953, 0, 0, 0, -1, -1, 0, 0, 0
5065918, -0.0027618408, 0.07043457, -0.01411438, 5065918, -0.56261724, -0.30289745, 0.26504564, 0, 0, 0, -1, -1, 0, 0, 0
5004882, 0.00944519, 0.076553345, -0.004333496, 5004882, -0.6682993, -0.2626686, 0.3696661, 0, 0, 0, -1, -1, 0, 0, 0
5035401, 0.015563965, 0.07165527, 0.012741089, 5035401, -0.71118873, -0.2610407, 0.44054747, 0, 0, 0, -1, -1, 0, 0, 0
4943847, 0.042419434, 0.05822754, 0.038406372, 4943847, -0.6776793, -0.24462175, 0.5095563, 0, 0, 0, -1, -1, 0, 0, 0
4943848, 0.05342102, 0.032562256, 0.056732178, 4943848, -0.5446553, -0.25597954, 0.5284257, 0, 0, 0, -1, -1, 0, 0, 0
4974365, 0.08030701, 0.009353638, 0.06651306, 4974365, -0.3812397, -0.25042486, 0.44962263, 0, 0, 0, -1, -1, 0, 0, 0
4913330, 0.09251404, -0.008972168, 0.07015991, 4913330, -0.18785357, -0.20819378, 0.29491234, 0, 0, 0, -1, -1, 0, 0, 0
4974366, 0.10229492, -0.024841309, 0.06283569, 4974366, -0.0749733, -0.14034748, 0.12874126, 0, 0, 0, -1, -1, 0, 0, 0
4943847, 0.10229492, -0.04560852, 0.044509888, 4943847, -0.043264657, -0.091525555, -0.030930042, 0, 0, 0, -1, -1, 0, 0, 0
4943848, 0.096191406, -0.04927063, 0.0335083, 4943848, 0.048741594, -0.06947899, -0.1401825, 0, 0, 0, -1, -1, 0, 0, 0
4943848, 0.07296753, -0.052947998, 0.04206848, 4943848, 0.060538277, -0.0075154305, -0.18560839, 0, 0, 0, -1, -1, 0, 0, 0
4943847, 0.04121399, -0.046829224, 0.032302856, 4943847, 0.1408405, 0.015193462, -0.1673131, 0, 0, 0, -1, -1, 0, 0, 0
4943848, 0.014328003, -0.0382843, 0.023742676, 4943848, 0.18643439, -0.029417038, -0.102344036, 0, 0, 0, -1, -1, 0, 0, 0
4943848, 8.8500977E-4, -0.018737793, 0.018859863, 4943848, 0.20778993, -0.06441164, -0.121797085, 0, 0, 0, -1, -1, 0, 0, 0
4943847, -0.023513794, 0.002029419, 0.007858276, 4943847, 0.15379937, -0.12550259, -0.035490513, 0, 0, 0, -1, -1, 0, 0, 0
4943848, -0.027191162, 0.0032653809, -0.019012451, 4943848, 0.005964756, -0.12623644, 0.05835247, 0, 0, 0, -1, -1, 0, 0, 0
4943848, -0.014984131, 0.004470825, -0.02999878, 4943848, -0.18105154, -0.14428663, 0.12815285, 0, 0, 0, -1, -1, 0, 0, 0
4943847, -0.02230835, -0.0028533936, -0.021453857, 4943847, -0.32241377, -0.17576027, 0.19760942, 0, 0, 0, -1, -1, 0, 0, 0
4913330, -0.019866943, 0.013031006, -0.009216309, 4913330, -0.4425835, -0.19883966, 0.25661898, 0, 0, 0, -1, -1, 0, 0, 0
4974366, -0.018630981, 0.022781372, 0.0017547607, 4974366, -0.52174246, -0.2625537, 0.44179916, 0, 0, 0, -1, -1, 0, 0, 0
4943847, -0.033309937, 0.037460327, 0.012741089, 4943847, -0.61131054, -0.2876439, 0.5421977, 0, 0, 0, -1, -1, 0, 0, 0
4943848, -0.03086853, 0.04234314, 0.023742676, 4943848, -0.6352037, -0.29299164, 0.5477166, 0, 0, 0, -1, -1, 0, 0, 0
4943848, -0.0039978027, 0.0105896, 0.032302856, 4943848, -0.60624343, -0.27525997, 0.42402744, 0, 0, 0, -1, -1, 0, 0, 0
4943847, 0.0021209717, -0.010177612, 0.0335083, 4943847, -0.52137864, -0.22158575, 0.38711023, 0, 0, 0, -1, -1, 0, 0, 0
4943848, 0.0082092285, -0.010177612, 0.026184082, 4943848, -0.49573582, -0.17855883, 0.38374758, 0, 0, 0, -1, -1, 0, 0, 0
5065918, 0.035095215, -0.05783081, 0.02986145, 4943848, -0.49573582, -0.17855883, 0.38374758, 0, 0, 0, -1, -1, 0, 0, 0
5065918, 0.035095215, -0.05783081, 0.02986145, 5065918, -0.20908403, -0.06832743, 0.25125504, 0, 0, 0, -1, -1, 0, 0, 0
5035400, 0.050979614, -0.051712036, 0.024978638, 5035400, -0.12265864, -0.05000305, 0.20880938, 0, 0, 0, -1, -1, 0, 0, 0
5065918, 0.059539795, -0.043167114, 0.009094238, 5035400, -0.12265864, -0.05000305, 0.20880938, 0, 0, 0, -1, -1, 0, 0, 0
4913330, 0.047317505, -0.05783081, 0.006652832, 5004883, -0.11098088, -0.03360367, 0.15618896, 0, 0, 0, -1, -1, 0, 0, 0
4974365, 0.03753662, -0.076156616, 0.007858276, 5065918, -0.12527137, -0.042625904, 0.116045475, 0, 0, 0, -1, -1, 0, 0, 0
4943848, 0.02532959, -0.099365234, 0.015182495, 4913330, -0.17220762, 0.0011906624, 0.02661848, 0, 0, 0, -1, -1, 0, 0, 0
4943848, 0.02532959, -0.099365234, 0.015182495, 4943848, -0.22500741, -0.051559925, -0.042951107, 0, 0, 0, -1, -1, 0, 0, 0
4943847, 0.020446777, -0.11402893, 0.018859863, 4943848, -0.22500741, -0.051559925, -0.042951107, 0, 0, 0, -1, -1, 0, 0, 0
4943847, 0.020446777, -0.11402893, 0.018859863, 4943847, -0.03398116, -0.09440994, -0.111543655, 0, 0, 0, -1, -1, 0, 0, 0
4913330, -0.005203247, -0.11891174, 0.018859863, 4943847, -0.03398116, -0.09440994, -0.111543655, 0, 0, 0, -1, -1, 0, 0, 0
5004883, 0.01676941, -0.11891174, 0.018859863, 4943848, -0.06309, -0.11800337, -0.023433685, 0, 0, 0, -1, -1, 0, 0, 0
4913330, 0.01676941, -0.10546875, 0.018859863, 4913330, -0.06428738, -0.073005676, 0.292953, 0, 0, 0, -1, -1, 0, 0, 0
4913330, 0.0289917, -0.08103943, 0.016418457, 5004883, -0.025301903, -0.106179714, 0.5382929, 0, 0, 0, -1, -1, 0, 0, 0
5065918, 0.031433105, -0.06271362, 0.016418457, 4913330, -0.012962833, -0.09047127, 0.5564203, 0, 0, 0, -1, -1, 0, 0, 0
4852295, 0.036331177, -0.040725708, 0.010299683, 4913330, -0.024823844, -0.12870121, 0.54807186, 0, 0, 0, -1, -1, 0, 0, 0
4943847, 0.038772583, -0.035827637, 0.006652832, 5065918, -0.080008075, -0.10734129, 0.39928102, 0, 0, 0, -1, -1, 0, 0, 0
4943848, 0.04121399, -0.030944824, 0.004196167, 4852295, -0.15731177, -0.16377783, 0.2676792, 0, 0, 0, -1, -1, 0, 0, 0
4943848, 0.039978027, -0.011413574, 0.009094238, 4943847, -0.25799155, -0.16483116, 0.17444181, 0, 0, 0, -1, -1, 0, 0, 0
4943848, 0.039978027, -0.011413574, 0.009094238, 4943848, -0.23709872, -0.13955355, 0.16836357, 0, 0, 0, -1, -1, 0, 0, 0
4913330, 0.03265381, -0.011413574, 0.0115356445, 4913330, -0.25272697, -0.09100914, 0.23315668, 0, 0, 0, -1, -1, 0, 0, 0
4943847, 0.04121399, 0.005706787, 0.02130127, 4913330, -0.25272697, -0.09100914, 0.23315668, 0, 0, 0, -1, -1, 0, 0, 0
4974365, 0.03265381, 0.025222778, 0.027420044, 4943848, -0.26214248, -0.06956053, 0.22415733, 0, 0, 0, -1, -1, 0, 0, 0
4974365, 0.03265381, 0.025222778, 0.027420044, 4974365, -0.20394458, -0.058434963, 0.26876688, 0, 0, 0, -1, -1, 0, 0, 0
4943848, 0.038772583, 0.032562256, 0.028625488, 4943848, -0.13871348, -0.06257439, 0.28013802, 0, 0, 0, -1, -1, 0, 0, 0
4943848, 0.052200317, 0.027664185, 0.017623901, 4943848, -0.10689886, -0.077451706, 0.21050024, 0, 0, 0, -1, -1, 0, 0, 0
4943847, 0.06930542, 0.015457153, 0.010299683, 4943847, -0.114366636, -0.028029919, 0.10998821, 0, 0, 0, -1, -1, 0, 0, 0
7049561, 0.07296753, 0.009353638, 0.0017547607, 7049561, -0.14619364, -0.06999302, -0.018252373, 0, 0, 0, -1, -1, 0, 0, 0
5035400, 0.059539795, -0.0052948, -0.005569458, 5035400, -0.17303212, -0.08736992, -0.20014524, 0, 0, 0, -1, -1, 0, 0, 0
5035401, 0.047317505, -0.017501831, -0.016571045, 5035401, -0.17592129, -0.06492758, -0.28245306, 0, 0, 0, -1, -1, 0, 0, 0
5035400, 0.02532959, -0.019958496, -0.02633667, 5035400, -0.14256711, -0.07651329, -0.35638475, 0, 0, 0, -1, -1, 0, 0, 0
5004883, -0.010101318, -0.039505005, -0.022659302, 5004883, -0.09464733, -0.051293373, -0.24335289, 0, 0, 0, -1, -1, 0, 0, 0
4974365, -0.039398193, -0.032180786, -0.044662476, 4974365, -0.12591921, -0.07551718, -0.09334946, 0, 0, 0, -1, -1, 0, 0, 0
4943848, -0.055282593, -0.018737793, -0.049545288, 4943848, -0.13262324, -0.07991266, 0.054759026, 0, 0, 0, -1, -1, 0, 0, 0
4913330, -0.0736084, -0.010177612, -0.048324585, 4913330, -0.13634832, -0.11043072, 0.2114749, 0, 0, 0, -1, -1, 0, 0, 0
4943848, -0.068725586, -0.008972168, -0.0385437, 4943848, -0.12755041, -0.09658575, 0.38049173, 0, 0, 0, -1, -1, 0, 0, 0
4943847, -0.06262207, -0.007736206, -0.043426514, 4943847, -0.1436157, -0.11251593, 0.4579692, 0, 0, 0, -1, -1, 0, 0, 0
4974365, -0.06996155, 0.0105896, -0.01777649, 4974365, -0.18373685, -0.12101078, 0.5145135, 0, 0, 0, -1, -1, 0, 0, 0
4943848, -0.06262207, 0.021575928, -0.004333496, 4943848, -0.29449627, -0.07972431, 0.5454149, 0, 0, 0, -1, -1, 0, 0, 0
4913330, -0.055282593, 0.03010559, 0.004196167, 4913330, -0.3898515, -0.08463812, 0.5599108, 0, 0, 0, -1, -1, 0, 0, 0
4943848, -0.05407715, 0.016693115, 0.017623901, 4943848, -0.4256481, -0.06169367, 0.53326416, 0, 0, 0, -1, -1, 0, 0, 0
4974365, -0.05039978, -0.0052948, 0.022521973, 4974365, -0.41273624, -0.055850506, 0.45839024, 0, 0, 0, -1, -1, 0, 0, 0
4913330, -0.032073975, -0.030944824, 0.023742676, 4913330, -0.35799313, -0.056647778, 0.43426085, 0, 0, 0, -1, -1, 0, 0, 0
4974365, -0.023513794, -0.06149292, 0.02130127, 4974365, -0.22464825, -0.092139244, 0.4045477, 0, 0, 0, -1, -1, 0, 0, 0
4913330, -0.008865356, -0.088378906, 0.020065308, 4913330, -0.13567065, -0.06519985, 0.4327383, 0, 0, 0, -1, -1, 0, 0, 0
4974366, 0.003326416, -0.095703125, 0.015182495, 4974366, -0.053355306, -0.06460571, 0.4204073, 0, 0, 0, -1, -1, 0, 0, 0
4913330, -0.011306763, -0.087142944, 0.004196167, 4913330, -0.028375685, -0.052778244, 0.28944921, 0, 0, 0, -1, -1, 0, 0, 0
4943847, -0.019866943, -0.07859802, -0.0067749023, 4943847, -0.10226497, -0.10185146, 0.2025199, 0, 0, 0, -1, -1, 0, 0, 0
4943848, -0.0039978027, -0.07003784, -0.027542114, 4943848, -0.12285566, -0.093696594, 0.09383392, 0, 0, 0, -1, -1, 0, 0, 0
4943848, -0.010101318, -0.05783081, -0.03488159, 4943848, -0.16115376, -0.10983324, 0.027768612, 0, 0, 0, -1, -1, 0, 0, 0
4943847, -0.03819275, -0.051712036, -0.037338257, 4943847, -0.1791446, -0.13922215, 0.0010142326, 0, 0, 0, -1, -1, 0, 0, 0
4943848, -0.05039978, -0.051712036, -0.028778076, 4943848, -0.15060133, -0.17396593, -0.031090736, 0, 0, 0, -1, -1, 0, 0, 0
4943848, -0.05039978, -0.043167114, -0.028778076, 4943848, -0.11267057, -0.14506531, 0.03449726, 0, 0, 0, -1, -1, 0, 0, 0
4974365, -0.060180664, -0.028503418, -0.03488159, 4974365, -0.10738742, -0.17403841, 0.11913252, 0, 0, 0, -1, -1, 0, 0, 0
7019043, -0.047958374, 0.013031006, -0.049545288, 7019043, -0.13536994, -0.16897535, 0.2965827, 0, 0, 0, -1, -1, 0, 0, 0
5035400, -0.04185486, 0.02645874, -0.05076599, 5035400, -0.21802007, -0.18771648, 0.3377838, 0, 0, 0, -1, -1, 0, 0, 0
5065918, -0.021072388, 0.04598999, -0.036102295, 5065918, -0.29344773, -0.19614983, 0.39259243, 0, 0, 0, -1, -1, 0, 0, 0
5035401, -0.017425537, 0.043548584, -0.025100708, 5035401, -0.41191733, -0.22369719, 0.40378475, 0, 0, 0, -1, -1, 0, 0, 0
5035400, 0.015563965, 0.015457153, -0.021453857, 5035400, -0.4124017, -0.21906614, 0.43060875, 0, 0, 0, -1, -1, 0, 0, 0
4943847, 0.04975891, -0.035827637, -0.005569458, 5035400, -0.4124017, -0.21906614, 0.43060875, 0, 0, 0, -1, -1, 0, 0, 0
4943848, 0.060760498, -0.0541687, 0.0029907227, 4943848, -0.41427273, -0.22340918, 0.38571453, 0, 0, 0, -1, -1, 0, 0, 0
4943848, 0.060760498, -0.0541687, 0.0029907227, 4943848, -0.22160299, -0.18162203, 0.18021917, 0, 0, 0, -1, -1, 0, 0, 0
4943848, 0.059539795, -0.052947998, 0.0029907227, 4943848, -0.15593599, -0.08581114, 0.119460106, 0, 0, 0, -1, -1, 0, 0, 0
4943847, 0.0448761, -0.05050659, 0.010299683, 4943847, -0.11538538, -0.08116293, 0.051486492, 0, 0, 0, -1, -1, 0, 0, 0
4913330, 0.038772583, -0.046829224, 0.010299683, 4943847, -0.11538538, -0.08116293, 0.051486492, 0, 0, 0, -1, -1, 0, 0, 0
4913330, 0.038772583, -0.046829224, 0.010299683, 4913330, -0.050066903, -7.805824E-4, -0.0063123703, 0, 0, 0, -1, -1, 0, 0, 0
4943847, 0.03388977, -0.024841309, 0.007858276, 4913330, -0.050066903, -7.805824E-4, -0.0063123703, 0, 0, 0, -1, -1, 0, 0, 0
4943847, 0.03388977, -0.024841309, 0.007858276, 4943847, 0.07313441, -0.033447742, -0.036768436, 0, 0, 0, -1, -1, 0, 0, 0
4974366, 0.030212402, -0.011413574, 0.0029907227, 4974366, 0.099099785, 0.003420353, -0.052371502, 0, 0, 0, -1, -1, 0, 0, 0
4943847, 0.026550293, 8.239746E-4, 0.006652832, 4943847, 0.10590194, -0.035672665, -0.100857735, 0, 0, 0, -1, -1, 0, 0, 0
4913330, 0.024093628, 0.0032653809, -0.004333496, 4913330, 0.05386311, -0.05039549, -0.0952549, 0, 0, 0, -1, -1, 0, 0, 0
4943848, 0.022888184, 0.024017334, -0.023895264, 4913330, 0.05386311, -0.05039549, -0.0952549, 0, 0, 0, -1, -1, 0, 0, 0
4974365, 0.021652222, 0.044784546, -0.023895264, 4943848, -0.09908454, -0.08739519, -0.09945583, 0, 0, 0, -1, -1, 0, 0, 0
4974365, 0.021652222, 0.044784546, -0.023895264, 4974365, -0.2807824, -0.14225817, -0.04367304, 0, 0, 0, -1, -1, 0, 0, 0
4913330, 0.010665894, 0.059432983, -0.016571045, 4913330, -0.34599805, -0.15339327, 0.024362087, 0, 0, 0, -1, -1, 0, 0, 0
4974365, -3.2043457E-4, 0.055786133, -0.0104522705, 4974365, -0.40711015, -0.21895409, 0.06093073, 0, 0, 0, -1, -1, 0, 0, 0
4943848, -0.011306763, 0.048446655, -0.0104522705, 4943848, -0.41387928, -0.18901062, 0.07910156, 0, 0, 0, -1, -1, 0, 0, 0
4943848, -0.013748169, 0.03010559, 0.0017547607, 4943848, -0.3525317, -0.17426968, 0.1367011, 0, 0, 0, -1, -1, 0, 0, 0
4943847, -0.007659912, -0.0028533936, 0.009094238, 4943847, -0.2904105, -0.20803928, 0.079679966, 0, 0, 0, -1, -1, 0, 0, 0
5035401, -0.0015563965, -0.023620605, 0.015182495, 5035401, -0.26371372, -0.13488865, 0.035743237, 0, 0, 0, -1, -1, 0, 0, 0
4852294, -0.005203247, -0.059051514, 0.016418457, 4852294, -0.24933548, -0.12088537, 0.13700008, 0, 0, 0, -1, -1, 0, 0, 0
7019043, -0.011306763, -0.076156616, 0.0115356445, 7019043, -0.15226915, -0.09471464, 0.13110447, 0, 0, 0, -1, -1, 0, 0, 0
5065918, -0.012542725, -0.08226013, 0.007858276, 5065918, -0.10475078, -0.09232664, 0.29777193, 0, 0, 0, -1, -1, 0, 0, 0
5004883, -0.028427124, -0.06149292, 0.00541687, 5004883, -0.016613469, -0.23755455, 0.31715345, 0, 0, 0, -1, -1, 0, 0, 0
5035401, -0.027191162, -0.048065186, 0.006652832, 5035401, -0.020278096, -0.061970234, 0.273149, 0, 0, 0, -1, -1, 0, 0, 0
5035400, -0.029632568, -0.0211792, 0.00541687, 5035400, -0.07096957, -0.097946644, 0.33090448, 0, 0, 0, -1, -1, 0, 0, 0
4943848, -0.03086853, 0.004470825, 0.006652832, 4943848, -0.07808378, -0.1369052, 0.22404385, 0, 0, 0, -1, -1, 0, 0, 0
4974365, -0.017425537, -0.0016174316, 0.009094238, 4974365, -0.09416287, -0.12981224, 0.19025183, 0, 0, 0, -1, -1, 0, 0, 0
4943848, -0.02230835, -0.022399902, 0.009094238, 4943848, -0.12935577, -0.08369303, 0.1312275, 0, 0, 0, -1, -1, 0, 0, 0
4943847, -0.033309937, -0.024841309, 0.015182495, 4943847, -0.16201286, -0.014971256, 0.0856657, 0, 0, 0, -1, -1, 0, 0, 0
4943848, -0.060180664, -0.034622192, 0.0115356445, 4943848, -0.14280586, 0.075176716, 0.08734512, 0, 0, 0, -1, -1, 0, 0, 0
4943848, -0.09439087, -0.043167114, -0.004333496, 4943848, -0.10460888, 0.106787205, 0.054660797, 0, 0, 0, -1, -1, 0, 0, 0
4943847, -0.14936829, -0.0382843, -0.004333496, 4943847, -0.11797875, 0.10913658, -0.058207512, 0, 0, 0, -1, -1, 0, 0, 0
4943848, -0.19946289, -0.032180786, 0.020065308, 4943848, -0.36639562, -0.075796604, -0.036359787, 0, 0, 0, -1, -1, 0, 0, 0
4943848, -0.23976135, -0.0052948, 0.06161499, 4943848, -0.60867816, -0.25647402, -0.10238743, 0, 0, 0, -1, -1, 0, 0, 0
4943847, -0.2495575, 0.020339966, 0.11659241, 4943847, -0.7701171, -0.5252452, -0.13783693, 0, 0, 0, -1, -1, 0, 0, 0
4943848, -0.24099731, 0.041107178, 0.17524719, 4943848, -0.69948435, -0.6029868, -0.21323538, 0, 0, 0, -1, -1, 0, 0, 0
4943847, -0.12004089, 0.38685608, 0.18989563, 4943847, 0.18182197, -0.709291, 0.8028197, 0, 0, 0, -1, -1, 0, 0, 0
4913331, 0.15115356, 1.1431122, 0.13735962, 4913331, 1.2590284, -0.53272295, -0.25336266, 0, 0, 0, -1, -1, 0, 0, 0
4974365, 0.27090454, 1.4815216, 0.06283569, 4974365, 1.1103702, -0.24799585, -1.6438618, 0, 0, 0, -1, -1, 0, 0, 0
4943847, 0.26478577, 1.4045563, -0.031219482, 4943847, 0.11988059, 0.18279934, -1.1792316, 0, 0, 0, -1, -1, 0, 0, 0
4943848, 0.21713257, 1.0539246, -0.08985901, 4943848, -0.6378422, 0.6419697, -1.6207438, 1, 929, 1213, 0, -1, 0, 0, 59856227590602
4913330, 0.10473633, 0.5298157, -0.0715332, 4913330, -1.060092, 0.53169537, -2.0374942, 0, 0, 0, 0, -1, 0, 0, 0
4943848, -0.20799255, 0.5298157, -0.016571045, 4943848, -1.2618456, 0.45430756, -1.3957119, 0, 0, 0, 0, -1, 0, 0, 0
4943847, -0.012542725, 0.008148193, -0.016571045, 4943847, -0.76465046, 0.34545565, -0.26380157, 0, 0, 0, 0, -1, 0, 0, 0
4943848, -0.112716675, -0.35960388, 0.026184082, 4943848, -0.017631054, 0.20651102, 0.4505267, 0, 0, 0, 0, -1, 0, 0, 0
4943848, -0.17745972, -0.45487976, 0.03718567, 4943848, 0.5724679, 0.009237289, 1.0266414, 0, 0, 0, 0, -1, 0, 0, 0
4943847, -0.20555115, -0.3828125, 0.020065308, 4943847, 0.8546321, -0.11347246, 1.4939518, 0, 0, 0, 0, -1, 0, 0, 0
5004882, -0.18357849, -0.24108887, -0.0849762, 4943847, 0.8546321, -0.11347246, 1.4939518, 0, 0, 0, 0, -1, 0, 0, 0
5004882, -0.18357849, -0.24108887, -0.0849762, 5004882, -0.018579036, -0.12955761, 1.6787124, 0, 0, 0, 0, -1, 0, 0, 0
5065918, -0.13226318, -0.3705902, -0.07887268, 5004882, -0.018579036, -0.12955761, 1.6787124, 0, 0, 0, 0, -1, 0, 0, 0
5035400, -0.11027527, -0.4512329, -0.0703125, 5035401, -0.19150734, -0.05070162, 1.6394882, 0, 0, 0, 0, -1, 0, 0, 0
4943848, -0.09561157, -0.49153137, -0.044662476, 5065918, -0.37697503, -0.057886124, 1.6632009, 0, 0, 0, 0, -1, 0, 0, 0
4943848, -0.09561157, -0.49153137, -0.044662476, 4943848, -0.83350706, -0.43690872, 1.4055266, 0, 0, 0, 0, -1, 0, 0, 0
4943847, -0.04307556, -0.39746094, 0.00541687, 4943847, -0.8920679, -0.32398987, 1.4286895, 0, 0, 0, 0, -1, 0, 0, 0
4943848, 0.0460968, -0.20198059, 0.07505798, 4943848, -0.4417497, -0.30161142, 0.7132673, 0, 0, 0, 0, -1, 0, 0, 0
4943848, 0.0460968, -0.20198059, 0.115371704, 4943848, -0.08191019, -0.27399874, -0.14054585, 0, 0, 0, 0, -1, 0, 0, 0
4943847, 0.15359497, 0.09976196, 0.115371704, 4943847, 0.6063554, -0.38840914, -1.160975, 0, 0, 0, -1, -1, 59856283154820, 0, 0
4913331, 0.21957397, 0.33921814, 0.11659241, 4913331, 0.57828456, -0.44737768, -1.9977236, 0, 0, 0, -1, -1, 0, 0, 0
4974365, 0.24401855, 0.41374207, 0.06651306, 4974365, 0.12713626, -0.27667665, -2.2745972, 0, 0, 0, -1, -1, 0, 0, 0
4943847, 0.21592712, 0.32333374, 5.493164E-4, 4943847, -0.47195154, -0.115921974, -2.2279458, 0, 0, 0, -1, -1, 0, 0, 0
4943848, 0.14627075, 0.14984131, -0.055648804, 4943848, -0.85013914, 0.12366247, -1.9296002, 0, 0, 0, -1, -1, 0, 0, 0
4943848, 0.063201904, -0.035827637, -0.064208984, 4943848, -1.0444821, 0.27155733, -1.5433264, 0, 0, 0, -1, -1, 0, 0, 0
4943847, -0.035751343, -0.18365479, -0.020217896, 4943847, -0.96687907, 0.34052515, -1.0972629, 0, 0, 0, -1, -1, 0, 0, 0
4943848, -0.1395874, -0.27774048, 0.034744263, 4943848, -0.58228076, 0.2997589, -0.7604251, 0, 0, 0, -1, -1, 0, 0, 0
4913330, -0.2202301, -0.32661438, 0.0823822, 4913330, -0.09844726, 0.19142103, -0.31743336, 0, 0, 0, -1, -1, 0, 0, 0
4974365, -0.28375244, -0.34492493, 0.08848572, 4974365, 0.31669962, 0.055450916, 0.2663555, 0, 0, 0, -1, -1, 0, 0, 0
4943848, -0.33750916, -0.3376007, 0.039627075, 4974365, 0.31669962, 0.055450916, 0.2663555, 0, 0, 0, -1, -1, 0, 0, 0
4943848, -0.33750916, -0.3376007, 0.039627075, 4943848, 0.58073163, -0.054609776, 1.428855, 0, 0, 0, -1, -1, 0, 0, 0
4943847, -0.31185913, -0.31195068, 0.0115356445, 4943847, 0.39588568, -0.05964756, 1.8653431, 0, 0, 0, -1, -1, 0, 0, 0
4913330, -0.17134094, -0.2679596, -0.012893677, 4943847, 0.39588568, -0.05964756, 1.8653431, 0, 0, 0, -1, -1, 0, 0, 0
4943848, -0.07728577, -0.2361908, 0.0017547607, 4943848, 0.14357308, -0.049234867, 2.2567058, 0, 0, 0, -1, -1, 0, 0, 0
4943847, 0.038772583, -0.21177673, 0.02130127, 4913330, -0.074371874, -0.07828903, 2.3918414, 0, 0, 0, -1, -1, 0, 0, 0
4943847, 0.038772583, -0.21177673, 0.02130127, 4943847, -0.04095909, -0.20216656, 1.9285922, 0, 0, 0, -1, -1, 0, 0, 0
4974366, 0.13894653, -0.17388916, 0.02986145, 4974366, 0.01236926, -0.23686647, 1.4434795, 0, 0, 0, -1, -1, 0, 0, 0
7049560, 0.21348572, -0.14700317, 0.02986145, 7049560, 0.02276504, -0.22066832, 0.9416919, 0, 0, 0, -1, -1, 0, 0, 0
5004883, 0.25990295, -0.123794556, 0.027420044, 5004883, -0.013368607, -0.21191168, 0.36684752, 0, 0, 0, -1, -1, 0, 0, 0
5035400, 0.27090454, -0.10424805, 0.013977051, 5035400, -0.05355625, -0.20643187, -0.06900358, 0, 0, 0, -1, -1, 0, 0, 0
5035401, 0.28189087, -0.07249451, 0.010299683, 5035401, -0.0846495, -0.16849947, -0.4592657, 0, 0, 0, -1, -1, 0, 0, 0
5249023, 0.26844788, -0.0382843, 0.009094238, 5249023, -0.07670286, -0.1191268, -0.8308644, 0, 0, 0, -1, -1, 0, 0, 0
4760742, 0.24890137, -0.0040740967, 0.016418457, 4760742, -0.074304104, -0.07783604, -1.067626, 0, 0, 0, -1, -1, 0, 0, 0
4943848, 0.20736694, 0.019134521, 0.02130127, 4943848, -0.1129926, -0.051461697, -1.2525029, 0, 0, 0, -1, -1, 0, 0, 0
4943848, 0.15971375, 0.03501892, 0.017623901, 4943848, -0.10409075, -0.03672695, -1.292274, 0, 0, 0, -1, -1, 0, 0, 0
4943847, 0.103515625, 0.03866577, 0.015182495, 4943847, -0.07991801, -0.014723301, -1.2828784, 0, 0, 0, -1, -1, 0, 0, 0
4943848, 0.048538208, 0.03501892, 0.024978638, 4943848, -0.08816129, -0.0081624985, -1.1806927, 0, 0, 0, -1, -1, 0, 0, 0
4913330, -0.013748169, 0.03501892, 0.020065308, 4913330, -0.13137032, -0.01318121, -1.0015893, 0, 0, 0, -1, -1, 0, 0, 0
4974365, -0.068725586, 0.03378296, 0.00541687, 4974365, -0.21294424, -0.039530754, -0.76207256, 0, 0, 0, -1, -1, 0, 0, 0
4943848, -0.09072876, 0.036224365, -6.866455E-4, 4943848, -0.23508579, -0.029460907, -0.40366888, 0, 0, 0, -1, -1, 0, 0, 0
4943848, -0.1212616, 0.028900146, 0.007858276, 4943848, -0.20543966, -0.093957424, -0.04423046, 0, 0, 0, -1, -1, 0, 0, 0
4943847, -0.13470459, 0.021575928, -0.0018920898, 4943847, -0.15477523, -0.12114334, 0.25503302, 0, 0, 0, -1, -1, 0, 0, 0
4943848, -0.14813232, 0.016693115, -0.008010864, 4943848, -0.19800591, -0.11685085, 0.44268084, 0, 0, 0, -1, -1, 0, 0, 0
4943848, -0.13470459, 0.01423645, -0.008010864, 4943848, -0.21767314, -0.0822134, 0.531332, 0, 0, 0, -1, -1, 0, 0, 0
4913330, -0.11515808, 0.002029419, -0.011657715, 4913330, -0.22121802, -0.076729774, 0.59024763, 0, 0, 0, -1, -1, 0, 0, 0
4943847, -0.080947876, 0.004470825, -0.008010864, 4943847, -0.22051285, -0.03864813, 0.61534786, 0, 0, 0, -1, -1, 0, 0, 0
4974366, -0.052841187, -4.119873E-4, -0.008010864, 4974366, -0.14112125, -0.03164339, 0.6132078, 0, 0, 0, -1, -1, 0, 0, 0
4943847, -0.052841187, -4.119873E-4, -0.025100708, 4943847, -0.072713554, -0.004000187, 0.5380783, 0, 0, 0, -1, -1, 0, 0, 0
4943848, -0.029632568, 0.01423645, -0.025100708, 4943848, -0.053445905, 0.014268875, 0.41745138, 0, 0, 0, -1, -1, 0, 0, 0
4943848, 0.021652222, 8.239746E-4, -0.040985107, 4893711, -0.08243169, 0.043115616, 0.35312557, 0, 0, 0, -1, -1, 0, 0, 0
4893710, 0.048538208, -0.019958496, -0.05076599, 4943847, -0.13207541, 0.0056085587, 0.24320364, 0, 0, 0, -1, -1, 0, 0, 0
4943848, 0.06686401, -0.03338623, -0.053207397, 4943848, -0.17246196, 0.024989128, 0.12863398, 0, 0, 0, -1, -1, 0, 0, 0
4943847, 0.071746826, -0.030944824, -0.05076599, 4943847, -0.15167522, -0.013465881, -0.05646324, 0, 0, 0, -1, -1, 0, 0, 0
4943848, 0.07662964, -0.035827637, -0.04222107, 4943848, -0.10807726, -0.018928051, -0.1645956, 0, 0, 0, -1, -1, 0, 0, 0
5035400, 0.03265381, -0.026062012, -0.023895264, 4943848, -0.10807726, -0.018928051, -0.1645956, 0, 0, 0, -1, -1, 0, 0, 0
5035400, 0.011886597, -0.0040740967, -0.0018920898, 7049561, -0.09686439, -0.044290066, -0.16051435, 0, 0, 0, -1, -1, 0, 0, 0
5035400, 0.011886597, -0.0040740967, -0.0018920898, 5035400, -0.10748929, -0.07878637, -0.06515789, 0, 0, 0, -1, -1, 0, 0, 0
5035401, 8.8500977E-4, 0.03378296, 0.00541687, 5035401, -0.04040979, -0.08027983, 0.003109455, 0, 0, 0, -1, -1, 0, 0, 0
5035400, -0.0027618408, 0.055786133, 0.007858276, 5035400, -0.0026465505, -0.0893836, 0.07181597, 0, 0, 0, -1, -1, 0, 0, 0
4974366, -0.027191162, 0.06921387, 0.004196167, 5035400, -0.0026465505, -0.0893836, 0.07181597, 0, 0, 0, -1, -1, 0, 0, 0
4943847, -0.044296265, 0.067993164, -0.004333496, 4913330, -0.009826824, -0.06402063, 0.22160912, 0, 0, 0, -1, -1, 0, 0, 0
4943848, -0.04307556, 0.07409668, -0.008010864, 4974366, -0.02887407, -0.09516764, 0.40541697, 0, 0, 0, -1, -1, 0, 0, 0
4943848, -0.04307556, 0.07531738, -0.005569458, 4943847, -0.09215671, -0.07562351, 0.5082092, 0, 0, 0, -1, -1, 0, 0, 0
4943847, -0.025970459, 0.06677246, -0.0018920898, 4943848, -0.09888743, -0.10793495, 0.55990696, 0, 0, 0, -1, -1, 0, 0, 0
4943847, -0.025970459, 0.06677246, -0.0018920898, 4943847, -0.047524273, -0.15198612, 0.4343443, 0, 0, 0, -1, -1, 0, 0, 0
4943848, -0.008865356, 0.04598999, 0.007858276, 4943848, -0.048823357, -0.11919975, 0.2951479, 0, 0, 0, -1, -1, 0, 0, 0
4974365, 0.031433105, 0.07165527, 0.006652832, 4943848, -0.048823357, -0.11919975, 0.2951479, 0, 0, 0, -1, -1, 0, 0, 0
4913330, 0.021652222, 0.06921387, 0.00541687, 4913330, -0.058594853, -0.13902092, 0.14310646, 0, 0, 0, -1, -1, 0, 0, 0
4913330, 0.021652222, 0.06921387, 0.00541687, 4913330, -0.08536127, -0.059461117, -0.16498327, 0, 0, 0, -1, -1, 0, 0, 0
4943848, 0.022888184, 0.053329468, -0.0031280518, 4943848, -0.138627, -0.040382862, -0.22119331, 0, 0, 0, -1, -1, 0, 0, 0
4974365, 0.019210815, 0.024017334, -0.015335083, 4974365, -0.18752524, -0.033291817, -0.23787928, 0, 0, 0, -1, -1, 0, 0, 0
4913330, 0.021652222, 0.002029419, -0.019012451, 4913330, -0.19365042, -0.04840851, -0.2852707, 0, 0, 0, -1, -1, 0, 0, 0
4974365, 0.022888184, -0.0028533936, -0.0104522705, 4974365, -0.18403494, -0.047438145, -0.2106862, 0, 0, 0, -1, -1, 0, 0, 0
4913330, -0.008865356, 0.008148193, -6.866455E-4, 4974365, -0.18403494, -0.047438145, -0.2106862, 0, 0, 0, -1, -1, 0, 0, 0
4974365, -3.2043457E-4, 0.013031006, -0.0104522705, 4943848, -0.14371556, -0.107106686, -0.117975235, 0, 0, 0, -1, -1, 0, 0, 0
4943848, -0.027191162, 0.008148193, -0.004333496, 4913330, -0.14211097, -0.10610771, -0.08009815, 0, 0, 0, -1, -1, 0, 0, 0
4943848, -0.027191162, 0.008148193, -0.004333496, 4943848, -0.1456483, -0.091917515, -0.12775993, 0, 0, 0, -1, -1, 0, 0, 0
4943848, -0.03819275, 0.002029419, -0.0031280518, 4943848, -0.15821296, -0.08848286, 0.010919094, 0, 0, 0, -1, -1, 0, 0, 0
4943848, -0.04673767, 0.002029419, -6.866455E-4, 4943848, -0.15821296, -0.08848286, 0.010919094, 0, 0, 0, -1, -1, 0, 0, 0
4913330, -0.04673767, -0.0016174316, 0.0017547607, 4943847, -0.1289776, -0.081088066, 0.15628767, 0, 0, 0, -1, -1, 0, 0, 0
4913330, -0.04673767, -0.0016174316, 0.0017547607, 4913330, -0.17352208, -0.08541393, 0.382226, 0, 0, 0, -1, -1, 0, 0, 0
7080078, -0.03451538, 0.0105896, 0.0029907227, 7080078, -0.15168354, -0.08588791, 0.3557291, 0, 0, 0, -1, -1, 0, 0, 0
5035401, -0.014984131, 0.011795044, 0.012741089, 5035401, -0.12606275, -0.104616165, 0.32598543, 0, 0, 0, -1, -1, 0, 0, 0
5004882, 0.010665894, 0.01423645, 0.0029907227, 5004882, -0.14510694, -0.06552124, 0.31213093, 0, 0, 0, -1, -1, 0, 0, 0
5065918, 0.026550293, 0.03010559, 0.009094238, 5065918, -0.0987345, -0.060909748, 0.3235879, 0, 0, 0, -1, -1, 0, 0, 0
5035401, 0.050979614, 0.03010559, 0.013977051, 5035401, -0.057407886, -0.021924496, 0.2435689, 0, 0, 0, -1, -1, 0, 0, 0
4943847, 0.06808472, 0.02645874, 0.0115356445, 4943847, -0.021389216, 0.0029234886, 0.14104795, 0, 0, 0, -1, -1, 0, 0, 0
4943848, 0.07418823, 0.021575928, 0.013977051, 4943848, 0.012117624, 0.037073135, -0.010377884, 0, 0, 0, -1, -1, 0, 0, 0
4943848, 0.060760498, 0.013031006, 0.012741089, 4943848, 0.005661607, 0.04782343, -0.19975615, 0, 0, 0, -1, -1, 0, 0, 0
4943847, 0.0448761, 0.019134521, 0.0115356445, 4943847, -0.01922661, 0.044507027, -0.31191683, 0, 0, 0, -1, -1, 0, 0, 0
4943848, 0.026550293, 0.032562256, 0.017623901, 4943848, -0.029760033, 0.009823322, -0.35473013, 0, 0, 0, -1, -1, 0, 0, 0
4943848, -0.006439209, 0.05455017, 0.015182495, 4943848, -0.05423513, 0.008563042, -0.34412527, 0, 0, 0, -1, -1, 0, 0, 0
4943847, -0.051635742, 0.07409668, 0.007858276, 4943847, -0.07632381, -0.019906044, -0.26791286, 0, 0, 0, -1, -1, 0, 0, 0
4913330, -0.055282593, 0.07899475, -0.0018920898, 4913330, -0.09501433, -0.05006504, -0.1767869, 0, 0, 0, -1, -1, 0, 0, 0
4974366, -0.060180664, 0.08265686, -0.0018920898, 4974366, -0.12476596, -0.07267332, -0.009159088, 0, 0, 0, -1, -1, 0, 0, 0
5126953, -0.06750488, 0.07899475, -0.011657715, 5126953, -0.12738839, -0.12167406, 0.1542449, 0, 0, 0, -1, -1, 0, 0, 0
4760742, -0.056518555, 0.041107178, -0.011657715, 4760742, -0.19031578, -0.13049316, 0.25458956, 0, 0, 0, -1, -1, 0, 0, 0
4943848, -0.051635742, 0.008148193, 5.493164E-4, 4943848, -0.24175674, -0.15310907, 0.2685032, 0, 0, 0, -1, -1, 0, 0, 0
4943847, -0.035751343, -0.015060425, -0.0018920898, 4943847, -0.26493338, -0.1761241, 0.28709888, 0, 0, 0, -1, -1, 0, 0, 0
4943848, -0.035751343, -0.015060425, -0.0067749023, 4943848, -0.2263923, -0.20539713, 0.28891468, 0, 0, 0, -1, -1, 0, 0, 0
4943848, -0.021072388, -0.03338623, -0.0067749023, 4943848, -0.20261452, -0.20971966, 0.25488043, 0, 0, 0, -1, -1, 0, 0, 0
4943847, -0.012542725, -0.035827637, -0.008010864, 4943847, -0.18898168, -0.18385887, 0.18162441, 0, 0, 0, -1, -1, 0, 0, 0
4943848, 0.003326416, -0.032180786, -0.0104522705, 4943848, -0.13253084, -0.13883924, 0.19810247, 0, 0, 0, -1, -1, 0, 0, 0
4943848, 0.011886597, -0.032180786, -0.01411438, 4943848, -0.1149964, -0.13330698, 0.25797462, 0, 0, 0, -1, -1, 0, 0, 0
4943847, 0.020446777, -0.0370636, -0.01777649, 4943847, -0.1049861, -0.03957653, 0.31373215, 0, 0, 0, -1, -1, 0, 0, 0
4943848, 0.024093628, -0.026062012, -0.019012451, 4943848, -0.081291676, -0.028596878, 0.32792187, 0, 0, 0, -1, -1, 0, 0, 0
4943848, 0.022888184, -0.0065307617, -0.008010864, 4943848, -0.09279832, -0.041992188, 0.27214432, 0, 0, 0, -1, -1, 0, 0, 0
4943847, 0.027770996, 0.0069122314, 0.0017547607, 4943847, -0.17031276, -0.06840992, 0.19550848, 0, 0, 0, -1, -1, 0, 0, 0
5035400, 0.03265381, 0.02645874, 0.016418457, 4943847, -0.17031276, -0.06840992, 0.19550848, 0, 0, 0, -1, -1, 0, 0, 0
5035400, 0.03265381, 0.02645874, 0.016418457, 5035400, 0.024725348, -0.034224987, 0.09670782, 0, 0, 0, -1, -1, 0, 0, 0
5035401, 0.027770996, 0.02645874, 0.016418457, 5035401, 0.011623353, 0.05328846, 0.064195156, 0, 0, 0, -1, -1, 0, 0, 0
5004882, 0.027770996, 0.022781372, 0.016418457, 5004882, -0.039288044, 0.054172516, 0.0074162483, 0, 0, 0, -1, -1, 0, 0, 0
5065918, 0.0289917, 0.037460327, 0.016418457, 5065918, -0.12693062, 0.03868389, -0.03709078, 0, 0, 0, -1, -1, 0, 0, 0
4943848, 0.015563965, 0.044784546, 0.02130127, 4943848, -0.09997073, 0.009673119, -0.09103155, 0, 0, 0, -1, -1, 0, 0, 0
4943848, -0.0039978027, 0.043548584, 0.015182495, 4943848, -0.114255816, -0.031168938, -0.04334116, 0, 0, 0, -1, -1, 0, 0, 0
4913330, -0.032073975, 0.01789856, 0.006652832, 4913330, -0.12082043, -0.036807537, -0.07135916, 0, 0, 0, -1, -1, 0, 0, 0
4943847, -0.033309937, -0.0065307617, -0.0031280518, 4943847, -0.13948604, -0.10029793, -0.031190395, 0, 0, 0, -1, -1, 0, 0, 0
4943847, -0.029632568, -0.017501831, 0.004196167, 4943847, -0.13948604, -0.10029793, -0.031190395, 0, 0, 0, -1, -1, 0, 0, 0
4943848, -0.039398193, -0.0052948, 0.006652832, 4974366, -0.08870593, -0.09968519, 0.016685009, 0, 0, 0, -1, -1, 0, 0, 0
4943848, -0.029632568, 0.013031006, 5.493164E-4, 4943847, -0.07444894, -0.103304386, 0.09852791, 0, 0, 0, -1, -1, 0, 0, 0
4913330, -0.028427124, 0.022781372, 5.493164E-4, 4943848, 0.002287805, -0.05027628, 0.03161192, 0, 0, 0, -1, -1, 0, 0, 0
4974365, -0.019866943, 0.032562256, -6.866455E-4, 4943848, 0.016161948, -0.0522213, 0.071501255, 0, 0, 0, -1, -1, 0, 0, 0
4913330, -0.0027618408, 0.036224365, -0.0067749023, 4913330, 0.0035221875, -0.0107245445, 0.09198332, 0, 0, 0, -1, -1, 0, 0, 0
4974365, -3.2043457E-4, 0.04234314, -0.021453857, 4974365, -0.07446188, 0.0015163422, 0.08963108, 0, 0, 0, -1, -1, 0, 0, 0
4974365, -3.2043457E-4, 0.04234314, -0.021453857, 4974365, -0.18203199, -0.028006554, 0.09117985, 0, 0, 0, -1, -1, 0, 0, 0
4913330, -0.013748169, 0.05455017, 0.0029907227, 4974365, -0.18203199, -0.028006554, 0.09117985, 0, 0, 0, -1, -1, 0, 0, 0
4913330, -0.013748169, 0.05455017, 0.0029907227, 4913330, -0.12934393, -0.069551945, 0.0080451965, 0, 0, 0, -1, -1, 0, 0, 0
4974365, -0.021072388, 0.027664185, 0.010299683, 4913330, -0.12934393, -0.069551945, 0.0080451965, 0, 0, 0, -1, -1, 0, 0, 0
4974365, -0.021072388, 0.027664185, 0.010299683, 4974365, -0.017528236, -0.089897156, 0.12279606, 0, 0, 0, -1, -1, 0, 0, 0
4943848, -0.016189575, 0.032562256, 0.00541687, 4974365, -0.017528236, -0.089897156, 0.12279606, 0, 0, 0, -1, -1, 0, 0, 0
4943848, 0.0021209717, 0.013031006, 0.007858276, 4943847, 3.4558773E-4, -0.091225624, 0.12440443, 0, 0, 0, -1, -1, 0, 0, 0
4943848, 0.0021209717, 0.013031006, 0.007858276, 4943848, -0.037370354, -0.045213223, 0.12674952, 0, 0, 0, -1, -1, 0, 0, 0
4913330, -0.016189575, -0.0065307617, 0.0017547607, 4913330, -0.023672104, -0.041728973, 0.12014389, 0, 0, 0, -1, -1, 0, 0, 0
4974365, -0.016189575, -0.039505005, 0.0017547607, 4974365, -0.06782609, -0.024154186, 0.10052633, 0, 0, 0, -1, -1, 0, 0, 0
4913330, -0.010101318, -0.05050659, -0.0018920898, 4913330, -0.069580585, -0.05941534, 0.04157591, 0, 0, 0, -1, -1, 0, 0, 0
7080078, -0.027191162, -0.043167114, -0.008010864, 7080078, -0.06554115, -0.046889782, 0.015181541, 0, 0, 0, -1, -1, 0, 0, 0
5004883, -0.021072388, -0.032180786, -0.011657715, 5004883, -0.07230082, -0.05016756, 0.004512787, 0, 0, 0, -1, -1, 0, 0, 0
5065918, -0.018630981, -0.0065307617, -0.01411438, 5065918, -0.050572306, -0.061727047, 0.042012215, 0, 0, 0, -1, -1, 0, 0, 0
5035400, -0.027191162, -0.011413574, -0.016571045, 5035400, -0.13169008, -0.026782513, 0.016938686, 0, 0, 0, -1, -1, 0, 0, 0
5065918, -0.035751343, -0.011413574, -0.0067749023, 5065918, -0.13537443, -0.054434776, 0.031198978, 0, 0, 0, -1, -1, 0, 0, 0
4913331, -0.028427124, -0.008972168, -0.0018920898, 4913331, -0.18135288, -0.04456806, 0.08790207, 0, 0, 0, -1, -1, 0, 0, 0
4943847, -0.024749756, -0.0052948, 0.004196167, 4943847, -0.22953516, -0.032909393, 0.19957066, 0, 0, 0, -1, -1, 0, 0, 0
4943848, -0.017425537, 0.0069122314, 0.010299683, 4943848, -0.215538, -0.031920433, 0.28967714, 0, 0, 0, -1, -1, 0, 0, 0
4943848, -0.011306763, 0.019134521, 0.018859863, 4943848, -0.15602484, -0.014552116, 0.28399038, 0, 0, 0, -1, -1, 0, 0, 0
4943847, -0.005203247, 0.013031006, 0.02130127, 4943847, -0.09739858, 0.004770756, 0.29445076, 0, 0, 0, -1, -1, 0, 0, 0
4943848, 0.0021209717, 0.020339966, 0.018859863, 4943848, -0.085161775, 0.1718564, 0.43336248, 0, 0, 0, -1, -1, 0, 0, 0
4943847, 0.003326416, 0.044784546, 0.010299683, 4943847, -0.08374894, 0.07268047, 0.68305206, 0, 0, 0, -1, -1, 0, 0, 0
4943848, 0.013122559, 0.06555176, 0.00541687, 4943848, 0.015760928, 0.027845383, 0.57625055, 0, 0, 0, -1, -1, 0, 0, 0
4913330, 0.014328003, 0.048446655, 0.004196167, 4913330, 0.056226343, -0.034737587, 0.20386744, 0, 0, 0, -1, -1, 0, 0, 0
4974365, 0.0057678223, 0.024017334, -0.0031280518, 4974365, 0.017062813, -0.15079546, -0.1276555, 0, 0, 0, -1, -1, 0, 0, 0
4943848, -0.0027618408, 0.024017334, -0.025100708, 4943848, -0.12510523, -0.22890854, -0.29539967, 0, 0, 0, -1, -1, 0, 0, 0
4913330, -0.0027618408, 0.021575928, -0.025100708, 4913330, -0.23613414, -0.23829174, -0.40537834, 0, 0, 0, -1, -1, 0, 0, 0
4943848, -0.021072388, 0.021575928, -0.04710388, 4943848, -0.32302883, -0.26519775, -0.52712965, 0, 0, 0, -1, -1, 0, 0, 0
4974365, -0.029632568, 0.01423645, -0.05076599, 4974365, -0.37068725, -0.35868788, -0.6371579, 0, 0, 0, -1, -1, 0, 0, 0
4943848, -0.040634155, -0.04927063, -0.05810547, 4943848, -0.043626368, -0.38770342, -2.2348166, 0, 0, 0, -1, -1, 0, 0, 0
4943847, 0.036331177, -0.7456665, -0.043426514, 4943847, -0.107608974, 0.2088728, -2.603006, 0, 0, 0, -1, -1, 0, 0, 0
4943848, 0.12062073, -1.4603577, -0.064208984, 4943848, 0.004883915, 0.66744184, -1.1847711, 0, 0, 0, -1, -1, 0, 0, 0
4943848, 0.20613098, -1.5202332, -0.116744995, 4943848, 0.049093485, 0.48759413, 0.8789768, 1, 107, 1085, 0, -1, 0, 0, 769003854
4943847, 0.37228394, -1.2001343, -0.14727783, 4943847, 0.6380251, 0.015823841, 1.9552269, 0, 0, 0, 0, -1, 0, 0, 0
4882813, 0.52500916, -0.6320343, -0.1851654, 4882813, 1.26898, -0.5606847, 1.3126783, 0, 0, 0, 0, -1, 0, 0, 0
4943848, 0.6068573, -0.10546875, -0.23034668, 4943848, 1.113686, -0.90389204, 0.8179426, 0, 0, 0, 0, -1, 0, 0, 0
4943847, 0.5995331, 0.1926117, -0.25723267, 4943847, 0.5497488, -0.76392984, 0.22124147, 0, 0, 0, 0, -1, 0, 0, 0
5035400, 0.4028473, 0.04234314, -0.20225525, 4943847, 0.5497488, -0.76392984, 0.22124147, 0, 0, 0, 0, -1, 0, 0, 0
5035400, 0.4028473, 0.04234314, -0.20225525, 5035400, -0.91012704, 0.50289965, 0.22323322, 0, 0, 0, 0, -1, 0, 0, 0
5065918, 0.2892151, -0.043167114, -0.13627625, 5065918, -0.45978385, 0.7752261, 0.3835063, 0, 0, 0, 0, -1, 0, 0, 0
5065918, 0.09373474, 0.1302948, -0.04222107, 5065918, -0.45978385, 0.7752261, 0.3835063, 0, 0, 0, 0, -1, 0, 0, 0
5065918, 0.09373474, 0.1302948, -0.04222107, 5065918, 0.3798123, 0.7811456, 0.55204916, 0, 0, 0, 0, -1, 0, 0, 0
4913330, 0.0021209717, 0.2292633, -0.08985901, 5065918, 0.3798123, 0.7811456, 0.55204916, 0, 0, 0, 0, -1, 0, 0, 0
4913330, 0.0021209717, 0.2292633, -0.08985901, 4913330, 0.107004374, 0.55364513, 0.31756353, 0, 0, 0, 0, -1, 0, 0, 0
4943847, -0.018630981, 0.2084961, -0.11428833, 4943847, -0.28901225, 0.37307167, 0.16178083, 0, 0, 0, 0, -1, 0, 0, 0
4974365, -0.052841187, 0.1950531, -0.11550903, 4974365, -0.65603626, 0.25915766, 0.0016617775, 0, 0, 0, 0, -1, 0, 0, 0
4943847, -0.13348389, 0.14251709, -0.06175232, 4974365, -0.65603626, 0.25915766, 0.0016617775, 0, 0, 0, 0, -1, 0, 0, 0
4974365, -0.17501831, 0.108306885, -0.012893677, 4913331, -0.8985601, -0.0029478073, -0.15584517, 0, 0, 0, 0, -1, 0, 0, 0
4974365, -0.17501831, 0.108306885, -0.012893677, 4974365, -0.8303308, -0.54966927, -0.2631669, 0, 0, 0, 0, -1, 0, 0, 0
4943848, -0.26052856, 0.043548584, 0.09460449, 4974365, -0.8303308, -0.54966927, -0.2631669, 0, 0, 0, 0, -1, 0, 0, 0
4943848, -0.26052856, 0.043548584, 0.09460449, 4943848, -0.22253114, -0.5879593, -0.14084578, 0, 0, 0, 0, -1, 0, 0, 0
4943847, -0.29109192, 0.031341553, 0.12147522, 4943847, 0.0018323064, -0.51734734, 0.056756973, 0, 0, 0, 0, -1, 0, 0, 0
4943848, -0.31185913, 0.04966736, 0.1312561, 4943848, 0.19605926, -0.49003267, 0.27279615, 0, 0, 0, 0, -1, 0, 0, 0
4943848, -0.31430054, 0.09732056, 0.13613892, 4943848, 0.38823456, -0.39797544, 0.38247156, 0, 0, 0, 0, -1, 0, 0, 0
4943847, -0.31307983, 0.1473999, 0.13735962, 4943847, 0.507233, -0.10952759, 0.37092018, 0, 0, 0, 0, -1, 0, 0, 0
4913330, -0.31185913, 0.20970154, 0.13491821, 4913330, 0.86427176, 0.24525738, 0.25423908, 0, 0, 0, 0, -1, 0, 0, 0
4943848, -0.28741455, 0.23658752, 0.11781311, 4943848, 1.0034648, 0.46286678, 0.075808525, 0, 0, 0, 0, -1, 0, 0, 0
4943847, -0.22511292, 0.2427063, 0.05307007, 4943848, 1.0034648, 0.46286678, 0.075808525, 0, 0, 0, 0, -1, 0, 0, 0
4974366, -0.20922852, 0.17184448, 0.00541687, 4943848, 0.94631124, 0.39114285, -0.1983614, 0, 0, 0, 0, -1, 0, 0, 0
4974366, -0.20922852, 0.17184448, 0.00541687, 4974366, 0.32689455, -0.12714005, -0.59911156, 0, 0, 0, 0, -1, 0, 0, 0
4943847, -0.18113708, 0.09486389, -0.03366089, 4943847, 0.0537121, -0.26715183, -0.5917573, 0, 0, 0, 0, -1, 0, 0, 0
4943848, -0.112716675, 0.032562256, -0.06175232, 4943847, 0.0537121, -0.26715183, -0.5917573, 0, 0, 0, -1, -1, 59857174328935, 0, 0
4943848, -0.112716675, 0.032562256, -0.06175232, 4943848, -0.22118711, -0.26267195, -0.41349268, 0, 0, 0, -1, -1, 0, 0, 0
4974365, -0.07972717, 0.067993164, -0.04710388, 4974365, -0.30215248, -0.16678762, -0.4069233, 0, 0, 0, -1, -1, 0, 0, 0
7049561, -0.07116699, 0.111968994, -0.01777649, 7049561, -0.2837191, -0.06433916, -0.4083748, 0, 0, 0, -1, -1, 0, 0, 0
5035400, -0.06262207, 0.15351868, -0.004333496, 5035400, -0.29894122, 2.4795532E-4, -0.30100393, 0, 0, 0, -1, -1, 0, 0, 0
5035401, -0.051635742, 0.1791687, 0.012741089, 5035401, -0.34265158, 0.09115267, -0.14094257, 0, 0, 0, -1, -1, 0, 0, 0
5035400, -0.051635742, 0.17184448, 0.031066895, 5035400, -0.31905082, 0.13076544, 0.057279587, 0, 0, 0, -1, -1, 0, 0, 0
5035400, -0.035751343, 0.16572571, 0.04084778, 5035400, -0.25575525, 0.14129972, 0.2345953, 0, 0, 0, -1, -1, 0, 0, 0
4913330, -0.008865356, 0.16696167, 0.044509888, 4913330, -0.20330876, 0.07676935, 0.3818245, 0, 0, 0, -1, -1, 0, 0, 0
4974366, 0.015563965, 0.18893433, 0.055511475, 4974366, -0.1773166, 0.036423206, 0.42018604, 0, 0, 0, -1, -1, 0, 0, 0
4943847, 0.026550293, 0.19993591, 0.0652771, 4943847, -0.23462042, 0.030914307, 0.34477854, 0, 0, 0, -1, -1, 0, 0, 0
4943848, 0.052200317, 0.20726013, 0.06895447, 4943848, -0.22861558, 0.056985855, 0.24464655, 0, 0, 0, -1, -1, 0, 0, 0
4943848, 0.05709839, 0.18649292, 0.06895447, 4943848, -0.2140693, 0.1123724, 0.12849426, 0, 0, 0, -1, -1, 0, 0, 0
4913330, 0.0460968, 0.17060852, 0.0640564, 4913330, -0.15923527, 0.09960747, -0.025331497, 0, 0, 0, -1, -1, 0, 0, 0
4974365, 0.022888184, 0.1315155, 0.060394287, 4974365, -0.08437744, 0.099291325, -0.086704254, 0, 0, 0, -1, -1, 0, 0, 0
4943848, 0.0021209717, 0.104644775, 0.048187256, 4943848, 0.04224649, 0.08444691, -0.13092947, 0, 0, 0, -1, -1, 0, 0, 0
4943847, -0.31062317, 0.104644775, 0.034744263, 4943847, 0.13864791, 0.074141026, -0.15599775, 0, 0, 0, -1, -1, 0, 0, 0
4974366, -0.021072388, 0.092422485, 0.034744263, 4974366, 0.23331052, 0.029489994, -0.19563961, 0, 0, 0, -1, -1, 0, 0, 0
4943847, -0.05407715, 0.09486389, 0.031066895, 4943847, 0.16291007, -0.007449627, -0.17815495, 0, 0, 0, -1, -1, 0, 0, 0
4943848, -0.07484436, 0.10342407, 0.02130127, 4943848, 0.12878302, -0.07252121, -0.15728521, 0, 0, 0, -1, -1, 0, 0, 0
4913330, -0.07728577, 0.1131897, 0.006652832, 4913330, 0.038350403, -0.109761715, -0.05086088, 0, 0, 0, -1, -1, 0, 0, 0
4943848, -0.06996155, 0.10708618, -0.0031280518, 4943848, -0.054240763, -0.09951401, -0.05201435, 0, 0, 0, -1, -1, 0, 0, 0
4974365, -0.06628418, 0.08631897, -0.0067749023, 4974365, -0.19709268, -0.1378541, 0.050640106, 0, 0, 0, -1, -1, 0, 0, 0
4943847, -0.056518555, 0.06311035, -0.0067749023, 4943847, -0.2420046, -0.1891408, 0.08501148, 0, 0, 0, -1, -1, 0, 0, 0
4943848, -0.039398193, 0.025222778, -0.004333496, 4943848, -0.29679456, -0.13140488, 0.051244736, 0, 0, 0, -1, -1, 0, 0, 0
4943848, -0.029632568, -0.0138549805, -0.019012451, 4943848, -0.28190088, -0.12362194, 0.07925129, 0, 0, 0, -1, -1, 0, 0, 0
4943847, -0.014984131, -0.056610107, -0.021453857, 4943847, -0.21607596, -0.117182255, -0.017711163, 0, 0, 0, -1, -1, 0, 0, 0
4943848, -0.0039978027, -0.07859802, -0.011657715, 4943848, -0.13189074, -0.12821484, -0.02844429, 0, 0, 0, -1, -1, 0, 0, 0
4943848, -0.008865356, -0.08226013, -0.011657715, 4943848, -0.05027014, -0.10126829, 0.01375103, 0, 0, 0, -1, -1, 0, 0, 0
4943847, -0.014984131, -0.07249451, -0.016571045, 4943847, -0.0150639415, -0.06850433, -0.04504633, 0, 0, 0, -1, -1, 0, 0, 0
7049561, -0.021072388, -0.06271362, -0.023895264, 7049561, 0.07251209, 0.01282835, -0.08148146, 0, 0, 0, -1, -1, 0, 0, 0
5004883, -0.029632568, -0.07249451, -0.032440186, 5004883, 0.08164489, 0.04855728, -0.13198185, 0, 0, 0, -1, -1, 0, 0, 0
5035400, -0.06750488, -0.07493591, -0.022659302, 5035400, 0.1108357, 0.083213806, -0.16226912, 0, 0, 0, -1, -1, 0, 0, 0
4638672, -0.1053772, -0.063934326, -0.031219482, 5035400, 0.1108357, 0.083213806, -0.16226912, 0, 0, 0, -1, -1, 0, 0, 0
4943847, -0.137146, -0.03338623, -0.03488159, 5462647, 0.12233096, 0.082342625, -0.09434223, 0, 0, 0, -1, -1, 0, 0, 0
4943847, -0.137146, -0.03338623, -0.03488159, 4943847, 0.1923863, 0.051989555, 0.07686281, 0, 0, 0, -1, -1, 0, 0, 0
4943848, -0.16036987, -0.0052948, -0.02633667, 4943848, 0.15217948, 0.03951788, 0.17822361, 0, 0, 0, -1, -1, 0, 0, 0
4943847, -0.1701355, 0.03501892, -0.037338257, 4943847, 0.076045096, 0.013192654, 0.36281967, 0, 0, 0, -1, -1, 0, 0, 0
4943848, -0.17869568, 0.080200195, -0.02999878, 4943848, -0.033846825, 0.025984287, 0.45412922, 0, 0, 0, -1, -1, 0, 0, 0
4943848, -0.18113708, 0.10342407, -0.031219482, 4943848, -0.09618956, 0.014811516, 0.544374, 0, 0, 0, -1, -1, 0, 0, 0
4943847, -0.17869568, 0.108306885, -0.01777649, 4943847, -0.16353446, 0.022219181, 0.49830246, 0, 0, 0, -1, -1, 0, 0, 0
4913331, -0.16645813, 0.096084595, -0.020217896, 4913331, -0.22502181, 0.01150322, 0.43977118, 0, 0, 0, -1, -1, 0, 0, 0
4974365, -0.13226318, 0.06555176, -0.028778076, 4974365, -0.34389082, -0.016841888, 0.32575417, 0, 0, 0, -1, -1, 0, 0, 0
4913330, -0.112716675, 0.036224365, -0.022659302, 4913330, -0.35732764, -0.05325699, 0.19924212, 0, 0, 0, -1, -1, 0, 0, 0
4943848, -0.09439087, -0.008972168, 0.006652832, 4913330, -0.35732764, -0.05325699, 0.19924212, 0, 0, 0, -1, -1, 0, 0, 0
4943848, -0.09439087, -0.008972168, 0.006652832, 4943848, -0.23840371, 0.01081419, 0.07382393, 0, 0, 0, -1, -1, 0, 0, 0
4943848, -0.08216858, -0.0541687, 0.020065308, 4943848, -0.23840371, 0.01081419, 0.07382393, 0, 0, 0, -1, -1, 0, 0, 0
4943848, -0.07606506, -0.056610107, 0.018859863, 4943847, -0.12538534, 0.018231869, 0.09696865, 0, 0, 0, -1, -1, 0, 0, 0
4943847, -0.05895996, -0.04194641, 0.009094238, 4943848, -0.052418113, -0.011581898, 0.115858555, 0, 0, 0, -1, -1, 0, 0, 0
4943847, -0.05895996, -0.04194641, 0.009094238, 4943847, 0.07759121, -0.020072937, 0.08669329, 0, 0, 0, -1, -1, 0, 0, 0
4943848, -0.057724, -0.018737793, 0.0029907227, 4943848, 0.090212464, -0.047996044, 0.041984558, 0, 0, 0, -1, -1, 0, 0, 0
4974365, -0.044296265, 0.019134521, 0.006652832, 4974365, 0.089360505, -0.018920422, -0.07638788, 0, 0, 0, -1, -1, 0, 0, 0
4943847, -0.044296265, 0.064315796, 0.012741089, 4974365, 0.089360505, -0.018920422, -0.07638788, 0, 0, 0, -1, -1, 0, 0, 0
4943847, -0.044296265, 0.064315796, 0.012741089, 4943847, 0.04900524, -0.023289204, -0.13156128, 0, 0, 0, -1, -1, 0, 0, 0
4974365, -0.057724, 0.08265686, 0.020065308, 4943847, 0.04900524, -0.023289204, -0.13156128, 0, 0, 0, -1, -1, 0, 0, 0
4974365, -0.057724, 0.08265686, 0.020065308, 4974365, -0.0013413131, -0.020212173, -0.043966293, 0, 0, 0, -1, -1, 0, 0, 0
4943848, -0.057724, 0.08998108, 0.020065308, 4943848, -0.0044645667, -0.07479668, 0.018212795, 0, 0, 0, -1, -1, 0, 0, 0
7049561, -0.061401367, 0.09364319, 0.0335083, 7049561, -0.027172267, -0.09406757, 0.05533886, 0, 0, 0, -1, -1, 0, 0, 0
5035400, -0.06262207, 0.088760376, 0.028625488, 5035400, -0.058023244, -0.09096813, 0.106200695, 0, 0, 0, -1, -1, 0, 0, 0
5035400, -0.060180664, 0.064315796, 0.024978638, 5035400, -0.049659073, -0.09369278, 0.16056442, 0, 0, 0, -1, -1, 0, 0, 0
5035401, -0.039398193, 0.031341553, 0.020065308, 5035401, -0.11099288, -0.07685614, 0.2884426, 0, 0, 0, -1, -1, 0, 0, 0
5035400, -0.006439209, 0.0069122314, 0.02130127, 5035400, -0.1458031, -0.06141615, 0.38107014, 0, 0, 0, -1, -1, 0, 0, 0
4943848, 0.014328003, -0.015060425, 0.027420044, 4943848, -0.20562243, -0.023602962, 0.4779091, 0, 0, 0, -1, -1, 0, 0, 0
4943847, 0.042419434, -0.007736206, 0.038406372, 4943847, -0.17664456, -0.010921955, 0.505064, 0, 0, 0, -1, -1, 0, 0, 0
4943848, 0.071746826, 0.004470825, 0.039627075, 4943848, -0.15538165, -0.009265423, 0.42624474, 0, 0, 0, -1, -1, 0, 0, 0
4943848, 0.10107422, 0.005706787, 0.0493927, 4943848, -0.17877018, -0.027957916, 0.28067303, 0, 0, 0, -1, -1, 0, 0, 0
4913330, 0.10839844, 0.0069122314, 0.054275513, 4913330, -0.15782061, 0.012652874, 0.14399338, 0, 0, 0, -1, -1, 0, 0, 0
4943847, 0.110839844, 0.011795044, 0.0652771, 4943847, -0.120395064, 0.020132065, 0.054230213, 0, 0, 0, -1, -1, 0, 0, 0
4943848, 0.110839844, 0.011795044, 0.06895447, 4943848, -0.049681306, 0.052088737, -0.10719681, 0, 0, 0, -1, -1, 0, 0, 0
4974365, 0.107177734, 0.011795044, 0.06895447, 4974365, 0.009170979, 0.04506874, -0.15825129, 0, 0, 0, -1, -1, 0, 0, 0
4913330, 0.10595703, 0.02645874, 0.059173584, 4913330, 0.07049441, 0.03511715, -0.17432928, 0, 0, 0, -1, -1, 0, 0, 0
4974366, 0.09863281, 0.039901733, 0.044509888, 4974366, 0.09000176, 0.049149513, -0.1454072, 0, 0, 0, -1, -1, 0, 0, 0
4943847, 0.08274841, 0.064315796, 0.051834106, 4943847, 0.13133928, -0.012799263, -0.12363911, 0, 0, 0, -1, -1, 0, 0, 0
4943848, 0.06564331, 0.09120178, 0.0493927, 4943848, 0.08735943, -0.042142868, -0.15475988, 0, 0, 0, -1, -1, 0, 0, 0
4943848, 0.063201904, 0.09732056, 0.038406372, 4943848, 0.047082216, -0.07409668, -0.115968704, 0, 0, 0, -1, -1, 0, 0, 0
4943847, 0.060760498, 0.09976196, 0.048187256, 4943847, -0.042719185, -0.019852638, -0.07654667, 0, 0, 0, -1, -1, 0, 0, 0
4943848, 0.05709839, 0.07531738, 0.04206848, 4943848, -0.069322675, -0.0012307167, -0.0024986267, 0, 0, 0, -1, -1, 0, 0, 0
4943848, 0.06564331, 0.04234314, 0.050628662, 4943848, -0.051221877, -0.027110577, 0.12972212, 0, 0, 0, -1, -1, 0, 0, 0
4943847, 0.07296753, -0.0052948, 0.05307007, 4943847, -0.07809764, -0.03170061, 0.32700253, 0, 0, 0, -1, -1, 0, 0, 0
4943848, 0.08152771, -0.0370636, 0.06161499, 4943848, -0.1474247, -0.03154993, 0.39878607, 0, 0, 0, -1, -1, 0, 0, 0
4943848, 0.10107422, -0.02973938, 0.0640564, 4943848, -0.12076223, -0.01924467, 0.4129305, 0, 0, 0, -1, -1, 0, 0, 0
4913330, 0.119400024, -0.012619019, 0.071395874, 4913330, -0.06903109, 0.015130997, 0.352252, 0, 0, 0, -1, -1, 0, 0, 0
4943847, 0.14260864, -0.0065307617, 0.0811615, 4943847, -0.018752545, 0.05629301, 0.32313633, 0, 0, 0, -1, -1, 0, 0, 0
4974366, 0.17071533, 0.024017334, 0.092163086, 4974366, -0.21102142, -0.042783737, 0.38718843, 0, 0, 0, -1, -1, 0, 0, 0
5035400, 0.20368958, 0.1144104, 0.0970459, 4974366, -0.21102142, -0.042783737, 0.38718843, 0, 0, 0, -1, -1, 0, 0, 0
5035400, 0.20368958, 0.1144104, 0.0970459, 5035400, 0.13476464, 0.027625084, -0.31859684, 0, 0, 0, -1, -1, 0, 0, 0
5035401, 0.19148254, 0.11808777, 0.06895447, 5035401, 0.13803029, 0.15080452, -0.44469595, 0, 0, 0, -1, -1, 0, 0, 0
5004883, 0.16827393, 0.08387756, 0.048187256, 5004883, -0.0248411, 0.22096252, -0.5045843, 0, 0, 0, -1, -1, 0, 0, 0
5035400, 0.13526917, 0.06555176, 0.023742676, 5035400, -0.094314516, 0.26533556, -0.4697852, 0, 0, 0, -1, -1, 0, 0, 0
4974365, 0.10595703, 0.07165527, 0.017623901, 4974365, -0.0934242, 0.23922634, -0.30025244, 0, 0, 0, -1, -1, 0, 0, 0
4913330, 0.060760498, 0.05455017, 0.0017547607, 4974365, -0.0934242, 0.23922634, -0.30025244, 0, 0, 0, -1, -1, 0, 0, 0
4943848, 0.052200317, 0.036224365, -0.0031280518, 4943848, -0.04251218, 0.18787575, -0.10404873, 0, 0, 0, -1, -1, 0, 0, 0
4943848, 0.052200317, 0.036224365, -0.0031280518, 4943848, 0.083542526, 0.11177254, 0.2546239, 0, 0, 0, -1, -1, 0, 0, 0
4974365, 0.055862427, 0.016693115, -0.0031280518, 4974365, 0.21321568, 0.07788372, 0.34150648, 0, 0, 0, -1, -1, 0, 0, 0
4943848, 0.063201904, 0.002029419, 5.493164E-4, 4943848, 0.25638577, 0.031006336, 0.4039855, 0, 0, 0, -1, -1, 0, 0, 0
4913330, 0.12062073, 0.019134521, -0.04586792, 4943848, 0.25638577, 0.031006336, 0.4039855, 0, 0, 0, -1, -1, 0, 0, 0
4943848, 0.14750671, 0.039901733, -0.06542969, 4943847, 0.14759439, 0.032969475, 0.40253735, 0, 0, 0, -1, -1, 0, 0, 0
4943848, 0.14750671, 0.039901733, -0.06542969, 4943848, -0.36007366, -0.32891417, 0.07330561, 0, 0, 0, -1, -1, 0, 0, 0
4943848, 0.17559814, 0.20970154, -0.064208984, 4943848, -0.36007366, -0.32891417, 0.07330561, 0, 0, 0, -1, -1, 0, 0, 0
4943847, 0.18048096, 0.19137573, -0.0703125, 4974365, -0.018872678, -0.1925106, -0.18152046, 0, 0, 0, -1, -1, 0, 0, 0
4943847, 0.18048096, 0.19137573, -0.0703125, 4943847, -0.10221815, 0.089271545, -0.4383669, 0, 0, 0, -1, -1, 0, 0, 0
4943848, 0.15727234, 0.12297058, -0.072753906, 4943848, -0.24412721, 0.16535568, -0.6287317, 0, 0, 0, -1, -1, 0, 0, 0
4943848, 0.11450195, 0.03378296, -0.072753906, 4943848, -0.2824823, 0.19797516, -0.5817685, 0, 0, 0, -1, -1, 0, 0, 0
4943848, 0.0289917, -0.0211792, -0.07519531, 4943848, -0.2824823, 0.19797516, -0.5817685, 0, 0, 0, -1, -1, 0, 0, 0
4943848, 0.0289917, -0.0211792, -0.07519531, 4943848, -0.19634047, 0.09376907, -0.37871695, 0, 0, 0, -1, -1, 0, 0, 0
4943848, -0.010101318, -0.007736206, -0.07519531, 4943848, -0.114898324, -0.016282082, -0.21591282, 0, 0, 0, -1, -1, 0, 0, 0
4913330, -0.044296265, 0.013031006, -0.0715332, 4913330, -0.0659326, -0.05568123, -0.06647253, 0, 0, 0, -1, -1, 0, 0, 0
4943848, -0.051635742, 0.03501892, -0.076416016, 4913330, -0.0659326, -0.05568123, -0.06647253, 0, 0, 0, -1, -1, 0, 0, 0
4943848, -0.051635742, 0.03501892, -0.076416016, 4943848, -0.06085688, -0.18494749, 0.24382496, 0, 0, 0, -1, -1, 0, 0, 0
4943848, -0.045516968, 0.09486389, -0.040985107, 4943848, -0.06085688, -0.18494749, 0.24382496, 0, 0, 0, -1, -1, 0, 0, 0
4943848, -0.045516968, 0.09486389, -0.040985107, 4943848, -0.20294565, -0.20235443, 0.3259921, 0, 0, 0, -1, -1, 0, 0, 0
7049561, -0.028427124, 0.096084595, -0.023895264, 7049561, -0.17275417, -0.07424688, 0.24328041, 0, 0, 0, -1, -1, 0, 0, 0
5035400, -0.023513794, 0.036224365, -0.008010864, 5035400, -0.084034026, 0.10588026, 0.3294673, 0, 0, 0, -1, -1, 0, 0, 0
5035400, -0.03819275, -0.056610107, -0.0018920898, 5035400, -0.09282982, 0.2212081, 0.37133598, 0, 0, 0, -1, -1, 0, 0, 0
5035401, -0.061401367, -0.13479614, 0.009094238, 5035401, -0.032447517, 0.26831102, 0.30585718, 0, 0, 0, -1, -1, 0, 0, 0
5035400, -0.09561157, -0.12623596, 0.024978638, 5035400, 0.06758547, 0.17551804, 0.08144951, 0, 0, 0, -1, -1, 0, 0, 0
4913330, -0.12980652, -0.04194641, 0.051834106, 4913330, -0.10404962, -0.017727375, -0.03565216, 0, 0, 0, -1, -1, 0, 0, 0
4943848, -0.14324951, 0.06311035, 0.079940796, 4943848, -0.17247814, -0.16950178, -0.043733597, 0, 0, 0, -1, -1, 0, 0, 0
4943848, -0.13226318, 0.12174988, 0.114151, 4943848, -0.10177702, -0.26223707, -0.008406639, 0, 0, 0, -1, -1, 0, 0, 0
4943847, -0.09805298, 0.12174988, 0.13369751, 4943847, -0.114795625, -0.33453178, 0.035224915, 0, 0, 0, -1, -1, 0, 0, 0
4943848, -0.09805298, 0.1461792, 0.13369751, 4943848, -0.09881574, -0.3551507, 0.09875822, 0, 0, 0, -1, -1, 0, 0, 0
4943848, -0.055282593, 0.14007568, 0.14468384, 4943848, -0.02875048, -0.30901003, 0.06073761, 0, 0, 0, -1, -1, 0, 0, 0
4943847, -0.012542725, 0.12541199, 0.15202332, 4943847, 0.13846916, -0.11126661, -0.088125706, 0, 0, 0, -1, -1, 0, 0, 0
4943848, 0.036331177, 0.13885498, 0.15202332, 4943848, 0.34806573, 0.32069063, -0.15317106, 0, 0, 0, -1, -1, 0, 0, 0
4943847, 0.063201904, 0.15596008, 0.127594, 4943847, 0.26000577, 0.19243097, -0.16292858, 0, 0, 0, -1, -1, 0, 0, 0
4974366, 0.08152771, 0.20117188, 0.1129303, 4974366, 0.26555222, 0.013240814, -0.23834324, 0, 0, 0, -1, -1, 0, 0, 0
4943847, 0.099853516, 0.2928009, 0.1129303, 4943847, 0.24607599, -0.16792154, -0.95559597, 0, 0, 0, -1, -1, 0, 0, 0
4913330, 0.12918091, 0.6886139, 0.11048889, 4913330, -2.0259619E-4, 0.15921926, -2.7346644, 0, 0, 0, -1, -1, 0, 0, 0
4943848, 0.10473633, 1.0539246, 0.092163086, 4943848, 0.67748487, 0.26578045, -2.6026902, 0, 0, 0, -1, -1, 0, 0, 0
4974365, 0.0021209717, 0.8144684, 0.06161499, 4974365, -0.026831806, 0.11605787, -2.1832519, 1, 926, 872, 0, -1, 0, 0, 679608645
4913330, -0.104156494, 0.39053345, 0.050628662, 4913330, -0.7239142, 0.34378004, -1.8160686, 0, 0, 0, 0, -1, 0, 0, 0
4943848, -0.2019043, 0.060668945, 0.031066895, 4943848, -0.48365247, 0.4905162, -1.3280296, 0, 0, 0, 0, -1, 0, 0, 0
4974365, -0.29353333, -0.14335632, 0.043289185, 4974365, -0.24633878, 0.413599, -0.60420704, 0, 0, 0, 0, -1, 0, 0, 0
4913330, -0.36437988, -0.24963379, 0.051834106, 4913330, 0.011012137, 0.1512537, 0.17472267, 0, 0, 0, 0, -1, 0, 0, 0
4974366, -0.4034729, -0.29362488, 0.056732178, 4974366, 0.23254752, -0.07356453, 0.8513551, 0, 0, 0, 0, -1, 0, 0, 0
4943847, -0.39614868, -0.3070526, 0.0493927, 4943847, 0.44803584, -0.2626543, 1.1947579, 0, 0, 0, 0, -1, 0, 0, 0
4943848, -0.37171936, -0.3241577, 0.039627075, 4943848, 0.66067094, -0.35528708, 1.3360372, 0, 0, 0, 0, -1, 0, 0, 0
4943848, -0.34851074, -0.32661438, 0.016418457, 4943848, 0.6687291, -0.45944834, 1.5012636, 0, 0, 0, 0, -1, 0, 0, 0
5065918, -0.27885437, -0.3302765, -0.048324585, 4943848, 0.6687291, -0.45944834, 1.5012636, 0, 0, 0, 0, -1, 0, 0, 0
5004882, -0.23243713, -0.297287, -0.06665039, 7019043, 0.31517732, -0.51231337, 1.9245195, 0, 0, 0, 0, -1, 0, 0, 0
5004882, -0.23243713, -0.297287, -0.06665039, 5004882, -0.363325, 0.030569553, 1.4846764, 0, 0, 0, 0, -1, 0, 0, 0
5065918, -0.18113708, -0.18365479, -0.0715332, 5065918, -0.64488477, 0.25860167, 0.8051357, 0, 0, 0, 0, -1, 0, 0, 0
5035401, -0.15791321, -0.024841309, -0.064208984, 5035401, -0.6654454, 0.29630613, 0.53109455, 0, 0, 0, -1, -1, 59857887962632, 0, 0
4913330, -0.123703, 0.10220337, -0.060546875, 4913330, -0.5726541, 0.21507835, 0.3400774, 0, 0, 0, -1, -1, 0, 0, 0
4974365, -0.080947876, 0.16696167, -0.056869507, 4974365, -0.4307918, 0.08464861, 0.0876894, 0, 0, 0, -1, -1, 0, 0, 0
4913330, -0.019866943, 0.17793274, -0.056869507, 4913330, -0.27994812, -0.0295372, -0.2641225, 0, 0, 0, -1, -1, 0, 0, 0
4943848, 0.03265381, 0.16572571, -0.067871094, 4943848, -0.21023875, -0.0067834854, -0.72788906, 0, 0, 0, -1, -1, 0, 0, 0
4974365, 0.047317505, 0.12541199, -0.09352112, 4974365, -0.2774632, 0.072377205, -0.97527075, 0, 0, 0, -1, -1, 0, 0, 0
4913330, -0.027191162, 0.008148193, -0.11062622, 4974365, -0.2774632, 0.072377205, -0.97527075, 0, 0, 0, -1, -1, 0, 0, 0
4974365, -0.07728577, -0.04194641, -0.088638306, 4943848, -0.34600198, 0.2051363, -1.0402951, 0, 0, 0, -1, -1, 0, 0, 0
4974365, -0.07728577, -0.04194641, -0.088638306, 4974365, -0.50389165, 0.3503666, -0.9176655, 0, 0, 0, -1, -1, 0, 0, 0
4943848, -0.1554718, -0.05050659, -0.067871094, 4943848, -0.36513412, 0.41391182, -0.8795314, 0, 0, 0, -1, -1, 0, 0, 0
4943848, -0.30941772, -0.0211792, -0.032440186, 4943848, -0.36513412, 0.41391182, -0.8795314, 0, 0, 0, -1, -1, 0, 0, 0
4943848, -0.30941772, -0.0211792, -0.032440186, 4943848, -0.027334392, 0.4094329, -0.21104431, 0, 0, 0, -1, -1, 0, 0, 0
4974365, -0.38638306, -0.0040740967, -0.008010864, 4943848, -0.027334392, 0.4094329, -0.21104431, 0, 0, 0, -1, -1, 0, 0, 0
4882812, -0.36315918, -0.039505005, -0.004333496, 4943848, 0.054767072, 0.29436445, 0.32505035, 0, 0, 0, -1, -1, 0, 0, 0
4974366, -0.29963684, -0.103027344, -0.0018920898, 4974365, 0.09668064, 0.20551968, 0.9361868, 0, 0, 0, -1, -1, 0, 0, 0
4943847, -0.22143555, -0.14212036, 0.0029907227, 4882812, 0.045253575, 0.12723207, 1.5582294, 0, 0, 0, -1, -1, 0, 0, 0
4943848, -0.22143555, -0.14212036, 0.0029907227, 4974366, -0.017752945, 0.013311863, 1.9568005, 0, 0, 0, -1, -1, 0, 0, 0
4943848, -0.22143555, -0.14212036, 0.0029907227, 4943848, -0.11489016, -0.17392826, 2.0434322, 0, 0, 0, -1, -1, 0, 0, 0
4943848, -0.11759949, -0.17021179, 0.0029907227, 4943848, -0.086291015, -0.24881458, 1.740737, 0, 0, 0, -1, -1, 0, 0, 0
4943847, 0.0057678223, -0.18489075, -0.0018920898, 4943847, -0.089036465, -0.2326479, 1.3027964, 0, 0, 0, -1, -1, 0, 0, 0
4943847, 0.16459656, -0.17633057, -0.0018920898, 4943847, -0.089036465, -0.2326479, 1.3027964, 0, 0, 0, -1, -1, 0, 0, 0
4943847, 0.16459656, -0.17633057, -0.0018920898, 4943847, -0.010415673, -0.16367245, 0.40731907, 0, 0, 0, -1, -1, 0, 0, 0
5004883, 0.20248413, -0.15800476, -0.005569458, 5004883, 0.029220104, -0.10997534, 0.032084465, 0, 0, 0, -1, -1, 0, 0, 0
6988526, 0.22080994, -0.10670471, -0.028778076, 6988526, -0.001157999, -0.09780455, -0.31363678, 0, 0, 0, -1, -1, 0, 0, 0
5035400, 0.20368958, -0.06515503, -0.053207397, 5035400, -2.641678E-4, -0.10996914, -0.596508, 0, 0, 0, -1, -1, 0, 0, 0
5035400, 0.16093445, -0.02973938, -0.059310913, 5035400, 0.01188606, -0.075288296, -0.76509094, 0, 0, 0, -1, -1, 0, 0, 0
5126954, 0.119400024, -0.0065307617, -0.039779663, 5126954, -0.050816655, -0.050130844, -0.89636135, 0, 0, 0, -1, -1, 0, 0, 0
4943847, 0.0790863, 0.028900146, -0.032440186, 4943847, -0.086028755, -0.065160275, -0.871932, 0, 0, 0, -1, -1, 0, 0, 0
4943848, 0.038772583, 0.056991577, -0.005569458, 4943848, -0.13081908, -0.07992077, -0.75871277, 0, 0, 0, -1, -1, 0, 0, 0
4943848, 0.0057678223, 0.056991577, 0.009094238, 4943848, -0.107848346, -0.023020744, -0.6367855, 0, 0, 0, -1, -1, 0, 0, 0
4913330, 0.0057678223, 0.04234314, 0.009094238, 4913330, -0.03519702, -0.030915737, -0.541193, 0, 0, 0, -1, -1, 0, 0, 0
4943847, -0.017425537, 0.03866577, 0.012741089, 4943847, 0.0041776896, 0.0058078766, -0.38554955, 0, 0, 0, -1, -1, 0, 0, 0
4974366, -0.025970459, 0.055786133, 0.027420044, 4974366, 0.059996188, 0.057347298, -0.35187626, 0, 0, 0, -1, -1, 0, 0, 0
4943847, -0.024749756, 0.06311035, 0.034744263, 4943847, 0.112829626, 0.05791092, -0.44404602, 0, 0, 0, -1, -1, 0, 0, 0
4943848, -0.029632568, 0.07899475, 0.031066895, 4943848, 0.12926841, 0.13465977, -0.45308495, 0, 0, 0, -1, -1, 0, 0, 0
4943848, -0.04185486, 0.05088806, 0.02130127, 4943848, 0.07640946, 0.17127514, -0.4343958, 0, 0, 0, -1, -1, 0, 0, 0
4943847, -0.052841187, 0.021575928, 0.012741089, 4943847, 0.046684384, 0.14973831, -0.34212303, 0, 0, 0, -1, -1, 0, 0, 0
4943848, -0.057724, 0.005706787, 0.010299683, 4943848, 0.028378189, 0.19831324, -0.20563507, 0, 0, 0, -1, -1, 0, 0, 0
4943847, -0.061401367, 0.0032653809, -6.866455E-4, 4943847, -0.009321392, 0.121794224, -0.10433388, 0, 0, 0, -1, -1, 0, 0, 0
4913331, -0.06628418, 0.004470825, -6.866455E-4, 4913331, -0.038544834, 0.05044937, -0.07396984, 0, 0, 0, -1, -1, 0, 0, 0
4974365, -0.07116699, 0.0069122314, -0.0067749023, 4974365, -0.07893032, -0.011732578, -0.087656975, 0, 0, 0, -1, -1, 0, 0, 0
4943847, -0.0736084, 0.004470825, -0.008010864, 4943847, -0.14539492, -0.06722355, -0.09394646, 0, 0, 0, -1, -1, 0, 0, 0
4943848, -0.07972717, -0.0016174316, -0.004333496, 4943848, -0.14594042, -0.0410738, -0.07384014, 0, 0, 0, -1, -1, 0, 0, 0
4943848, -0.07606506, -0.032180786, -0.011657715, 4943848, -0.1899848, -0.0074276924, -0.017363548, 0, 0, 0, -1, -1, 0, 0, 0
4943847, -0.08583069, -0.063934326, -0.005569458, 4943847, -0.18314093, 0.040781498, 0.15814686, 0, 0, 0, -1, -1, 0, 0, 0
4943848, -0.07606506, -0.09814453, -0.0067749023, 4943848, -0.20552617, 0.065130234, 0.24427223, 0, 0, 0, -1, -1, 0, 0, 0
4943848, -0.052841187, -0.11891174, -0.0031280518, 4943848, -0.17564261, 0.08340788, 0.2834711, 0, 0, 0, -1, -1, 0, 0, 0
4943847, -0.044296265, -0.11647034, 0.006652832, 4943847, -0.09663695, 0.05367136, 0.30541897, 0, 0, 0, -1, -1, 0, 0, 0
4913330, -0.03086853, -0.111587524, 0.007858276, 4913330, -0.012763381, 0.091107845, 0.2664938, 0, 0, 0, -1, -1, 0, 0, 0
4974366, -0.024749756, -0.08470154, 0.012741089, 4974366, 0.104358494, 0.060154438, 0.1794424, 0, 0, 0, -1, -1, 0, 0, 0
7049560, -0.018630981, -0.060272217, 0.004196167, 7049560, 0.14011967, 0.033337593, -0.18792152, 0, 0, 0, -1, -1, 0, 0, 0
5004882, -0.06262207, -0.022399902, -0.016571045, 7049560, 0.14011967, 0.033337593, -0.18792152, 0, 0, 0, -1, -1, 0, 0, 0
5004882, -0.06262207, -0.022399902, -0.016571045, 5004882, 0.124409795, 0.035556793, -0.30216503, 0, 0, 0, -1, -1, 0, 0, 0
5065918, -0.08583069, -0.011413574, -0.0031280518, 5065918, 0.0864104, 0.03884411, -0.26045036, 0, 0, 0, -1, -1, 0, 0, 0
5035401, -0.104156494, -0.0052948, -0.0018920898, 5035401, 0.073099256, 0.08984518, -0.22369576, 0, 0, 0, -1, -1, 0, 0, 0
4943847, -0.124923706, 8.239746E-4, -0.009216309, 4943847, 0.03347671, 0.0888772, -0.16737747, 0, 0, 0, -1, -1, 0, 0, 0
4943848, -0.14569092, 0.0069122314, 0.0029907227, 4943848, 0.024389327, 0.08899164, -0.1788826, 0, 0, 0, -1, -1, 0, 0, 0
4913330, -0.1566925, 0.0069122314, 0.006652832, 4913330, 0.05418408, 0.1033659, -0.14729214, 0, 0, 0, -1, -1, 0, 0, 0
4974365, -0.16645813, 0.0105896, -0.0018920898, 4974365, 0.0013629794, 0.12332249, -0.032567024, 0, 0, 0, -1, -1, 0, 0, 0
4943848, -0.16157532, 0.01789856, -0.0018920898, 4943848, -0.01833868, 0.13245821, 0.12834358, 0, 0, 0, -1, -1, 0, 0, 0
4943848, -0.1542511, 0.031341553, -6.866455E-4, 4943848, 0.049847424, 0.111536026, 0.26080608, 0, 0, 0, -1, -1, 0, 0, 0
4943847, -0.14324951, 0.04598999, -0.0031280518, 4943847, 0.0553993, 0.087555885, 0.38878536, 0, 0, 0, -1, -1, 0, 0, 0
4943848, -0.12860107, 0.05088806, 5.493164E-4, 4943848, 0.052299798, 0.09002352, 0.53218365, 0, 0, 0, -1, -1, 0, 0, 0
4943848, -0.100494385, 0.05088806, -0.0031280518, 4943848, 0.047825396, 0.10752916, 0.55290985, 0, 0, 0, -1, -1, 0, 0, 0
4943847, -0.08216858, 0.05088806, -6.866455E-4, 4943847, 0.019099891, 0.1290369, 0.45062256, 0, 0, 0, -1, -1, 0, 0, 0
4913330, -0.0736084, 0.044784546, 0.009094238, 4913330, 0.0068445206, 0.13476753, 0.27554703, 0, 0, 0, -1, -1, 0, 0, 0
4974366, -0.06628418, 0.024017334, 0.020065308, 4974366, -0.0011638999, 0.20100927, 0.1048727, 0, 0, 0, -1, -1, 0, 0, 0
4943848, -0.05407715, -0.0016174316, 0.035949707, 4974366, -0.0011638999, 0.20100927, 0.1048727, 0, 0, 0, -1, -1, 0, 0, 0
4943848, -0.05407715, -0.024841309, 0.035949707, 4943847, 0.033550978, 0.22248125, -0.11476612, 0, 0, 0, -1, -1, 0, 0, 0
4943847, -0.051635742, -0.060272217, 0.04084778, 4943848, 0.12384111, 0.19334602, -0.3092413, 0, 0, 0, -1, -1, 0, 0, 0
4943847, -0.051635742, -0.060272217, 0.04084778, 4943847, 0.2433793, 0.12279463, -0.69962215, 0, 0, 0, -1, -1, 0, 0, 0
4974366, -0.10293579, -0.06271362, 0.039627075, 4943847, 0.2433793, 0.12279463, -0.69962215, 0, 0, 0, -1, -1, 0, 0, 0
4943847, -0.14202881, -0.051712036, 0.04084778, 4913330, 0.27860796, 0.12478161, -0.7903223, 0, 0, 0, -1, -1, 0, 0, 0
4913330, -0.18113708, -0.035827637, 0.038406372, 4974366, 0.27608818, 0.17040253, -0.9048557, 0, 0, 0, -1, -1, 0, 0, 0
4974366, -0.2202301, -0.0065307617, 0.046951294, 4943847, 0.33307087, 0.20816088, -0.93437004, 0, 0, 0, -1, -1, 0, 0, 0
5432128, -0.26420593, 0.028900146, 0.048187256, 4913330, 0.29855478, 0.17353964, -0.7298889, 0, 0, 0, -1, -1, 0, 0, 0
5432128, -0.26420593, 0.028900146, 0.048187256, 5432128, 0.29024404, -0.05662775, -0.52633953, 0, 0, 0, -1, -1, 0, 0, 0
6561280, -0.32162476, 0.108306885, 0.035949707, 6561280, 0.07650754, -0.05194044, 0.038258553, 0, 0, 0, -1, -1, 0, 0, 0
5035400, -0.32040405, 0.1437378, 0.051834106, 5035400, -0.23584872, -0.10522175, 0.18530941, 0, 0, 0, -1, -1, 0, 0, 0
5035401, -0.31552124, 0.1974945, 0.07383728, 5035401, -0.37678736, -0.14803028, 0.31855583, 0, 0, 0, -1, -1, 0, 0, 0
5035400, -0.31796265, 0.2268219, 0.10192871, 5035400, -0.36234832, -0.23586512, 0.44008732, 0, 0, 0, -1, -1, 0, 0, 0
5004883, -0.31796265, 0.2268219, 0.115371704, 5004883, -0.39365906, -0.32543087, 0.5782156, 0, 0, 0, -1, -1, 0, 0, 0
4974365, -0.31185913, 0.26467896, 0.115371704, 4974365, -0.4349556, -0.25998116, 0.68890953, 0, 0, 0, -1, -1, 0, 0, 0
4943848, -0.2886505, 0.2928009, 0.13491821, 4943848, -0.55271465, -0.23692226, 0.94748783, 0, 0, 0, -1, -1, 0, 0, 0
4943847, -0.25808716, 0.30012512, 0.15324402, 4943847, -0.6297822, -0.1868515, 1.0345087, 0, 0, 0, -1, -1, 0, 0, 0
4943848, -0.21290588, 0.28790283, 0.17524719, 4943848, -0.6628797, -0.23110819, 1.1641283, 0, 0, 0, -1, -1, 0, 0, 0
4943848, -0.16036987, 0.2634735, 0.19233704, 4943848, -0.5392078, -0.18937874, 1.075552, 0, 0, 0, -1, -1, 0, 0, 0
4943847, -0.100494385, 0.2243805, 0.19721985, 4943847, -0.37991798, -0.13501883, 0.94503593, 0, 0, 0, -1, -1, 0, 0, 0
4943848, -0.044296265, 0.1803894, 0.1960144, 4943848, -0.23744845, -0.123271465, 0.75726604, 0, 0, 0, -1, -1, 0, 0, 0
4943848, 0.0021209717, 0.15840149, 0.18257141, 4943848, -0.17433393, -0.13765764, 0.49945545, 0, 0, 0, -1, -1, 0, 0, 0
4943847, 0.04975891, 0.1437378, 0.16300964, 4943847, -0.15619838, -0.09332609, 0.19131947, 0, 0, 0, -1, -1, 0, 0, 0
4943848, 0.063201904, 0.1278534, 0.14468384, 4943848, -0.1105175, -0.030414581, 0.05809307, 0, 0, 0, -1, -1, 0, 0, 0
4943848, 0.07662964, 0.111968994, 0.1288147, 4943848, -0.09526765, 0.023793697, -0.08550358, 0, 0, 0, -1, -1, 0, 0, 0
4943847, 0.07662964, 0.096084595, 0.111709595, 4943847, -0.08850801, 0.004486084, -0.23631096, 0, 0, 0, -1, -1, 0, 0, 0
4943848, 0.06442261, 0.09120178, 0.0811615, 4943848, -0.06837374, 0.039124966, -0.33982372, 0, 0, 0, -1, -1, 0, 0, 0
4943848, 0.036331177, 0.07775879, 0.06895447, 4943848, -0.044760406, 0.035400867, -0.46052647, 0, 0, 0, -1, -1, 0, 0, 0
4943847, 0.01676941, 0.06677246, 0.046951294, 4943847, -0.05855763, 0.06748152, -0.5033865, 0, 0, 0, -1, -1, 0, 0, 0
4943848, -0.013748169, 0.047225952, 0.015182495, 4943848, -0.07204652, 0.07110739, -0.46752644, 0, 0, 0, -1, -1, 0, 0, 0
4943848, -0.057724, 0.03501892, -0.0031280518, 4943848, -0.085307, 0.07673168, -0.38984776, 0, 0, 0, -1, -1, 0, 0, 0
4943847, -0.07850647, 0.04234314, -0.025100708, 4943847, -0.14049387, 0.07285023, -0.29514503, 0, 0, 0, -1, -1, 0, 0, 0
4943848, -0.088272095, 0.031341553, -0.031219482, 4943848, -0.19228047, 0.011728287, -0.19438648, 0, 0, 0, -1, -1, 0, 0, 0
4913330, -0.104156494, 0.0032653809, -0.039779663, 4913330, -0.25607902, 0.00987196, -0.14670563, 0, 0, 0, -1, -1, 0, 0, 0
4974365, -0.10293579, -0.022399902, -0.056869507, 4974365, -0.30620039, -1.2731552E-4, -0.039390564, 0, 0, 0, -1, -1, 0, 0, 0
4943848, -0.09072876, -0.039505005, -0.055648804, 4943848, -0.36492038, -0.027240276, 0.04786682, 0, 0, 0, -1, -1, 0, 0, 0
5065918, -0.08216858, -0.055389404, -0.040985107, 4943848, -0.36492038, -0.027240276, 0.04786682, 0, 0, 0, -1, -1, 0, 0, 0
5035400, -0.06996155, -0.048065186, -0.027542114, 7019043, -0.2775852, -0.011647701, 0.4342842, 0, 0, 0, -1, -1, 0, 0, 0
5035401, -0.044296265, -0.02973938, -0.023895264, 5065918, -0.23714507, 0.01925993, 0.54569817, 0, 0, 0, -1, -1, 0, 0, 0
5035400, -0.029632568, -0.040725708, -0.01411438, 5035400, -0.21802366, 0.09250498, 0.4838171, 0, 0, 0, -1, -1, 0, 0, 0
5035400, -0.029632568, -0.040725708, -0.01411438, 5035400, -0.049993098, 0.12066269, 0.50703907, 0, 0, 0, -1, -1, 0, 0, 0
4943848, 0.003326416, -0.04927063, -0.019012451, 4943848, 0.029785812, 0.13150454, 0.49195004, 0, 0, 0, -1, -1, 0, 0, 0
4943848, 0.05342102, -0.04194641, -0.027542114, 4943848, 0.029785812, 0.13150454, 0.49195004, 0, 0, 0, -1, -1, 0, 0, 0
4943848, 0.05342102, -0.04194641, -0.027542114, 4943848, 0.19086748, 0.097522736, -0.09058571, 0, 0, 0, -1, -1, 0, 0, 0
4943848, 0.047317505, -0.0541687, -0.04710388, 4943848, 0.18237406, 0.060049534, -0.41982174, 0, 0, 0, -1, -1, 0, 0, 0
4913330, 0.054656982, -0.0688324, -0.0715332, 4913330, 0.1382972, 0.07397032, -0.71678543, 0, 0, 0, -1, -1, 0, 0, 0
4943847, 0.04121399, -0.067596436, -0.09963989, 4913330, 0.1382972, 0.07397032, -0.71678543, 0, 0, 0, -1, -1, 0, 0, 0
4943847, 0.04121399, -0.067596436, -0.09963989, 4943847, -0.02471894, -0.026154041, -1.0337229, 0, 0, 0, -1, -1, 0, 0, 0
4943848, -0.005203247, -0.039505005, -0.13383484, 4943847, -0.02471894, -0.026154041, -1.0337229, 0, 0, 0, -1, -1, 0, 0, 0
4943848, -0.005203247, -0.039505005, -0.13383484, 4943848, -0.05658686, -0.09187317, -1.0947628, 0, 0, 0, -1, -1, 0, 0, 0
4943848, -0.08705139, -0.099365234, -0.14361572, 4943848, -0.05658686, -0.09187317, -1.0947628, 0, 0, 0, -1, -1, 0, 0, 0
4943848, 0.14260864, -0.099365234, -0.104522705, 4943847, -0.10889077, -0.18577433, -1.2355986, 0, 0, 0, -1, -1, 0, 0, 0
4943847, 0.14260864, -0.5575104, -0.104522705, 4943848, -0.2526253, -0.29714394, -1.2165651, 0, 0, 0, -1, -1, 0, 0, 0
4913331, 0.60321045, -1.1769257, -0.032440186, 4943848, -1.0147986, -0.5941558, 1.7710953, 0, 0, 0, -1, -1, 0, 0, 0
4974365, 0.89030457, -1.180603, -0.076416016, 4943847, -0.83344597, 0.18785238, 1.3224754, 0, 0, 0, -1, -1, 0, 0, 0
4943847, 1.0479126, -0.9008179, -0.17536926, 4913331, 0.5439588, 0.4315338, 2.1135254, 0, 0, 0, -1, -1, 0, 0, 0
4943847, 1.0479126, -0.9008179, -0.17536926, 4943847, 1.1803781, 0.040508747, -0.5921936, 0, 0, 0, -1, -1, 0, 0, 0
4943848, 1.0100403, -0.48908997, -0.26579285, 4943848, 0.5132504, 0.033889294, -0.9023428, 1, 221, 1415, 0, -1, 0, 0, 658828490
4943848, 0.84020996, -0.23254395, -0.29632568, 4943848, -0.1824849, -0.15117645, -1.2190332, 0, 0, 0, 0, -1, 0, 0, 0
4943847, 0.6251831, -0.12991333, -0.27679443, 4943847, -0.55268615, -0.22768354, -1.3231192, 0, 0, 0, 0, -1, 0, 0, 0
4943848, 0.18780518, -0.19589233, -0.103302, 4943847, -0.55268615, -0.22768354, -1.3231192, 0, 0, 0, 0, -1, 0, 0, 0
4943848, 0.18780518, -0.19589233, -0.103302, 4943848, -0.74569345, 0.010761738, 0.16368008, 0, 0, 0, 0, -1, 0, 0, 0
4943847, 0.036331177, -0.12258911, -0.037338257, 4943847, -0.24235705, 0.28121662, 1.2780743, 0, 0, 0, 0, -1, 0, 0, 0
7049561, -0.0015563965, -0.0052948, -0.01777649, 7049561, 0.23648095, 0.44052935, 1.7464857, 0, 0, 0, 0, -1, 0, 0, 0
5035400, 0.05709839, 0.067993164, -0.01777649, 5035400, 0.44717902, 0.5846696, 1.6542158, 0, 0, 0, 0, -1, 0, 0, 0
5035401, 0.12550354, 0.080200195, -0.06665039, 5035401, 0.17157638, 0.62108374, 1.348463, 0, 0, 0, 0, -1, 0, 0, 0
5035400, 0.19148254, 0.03866577, -0.09352112, 5035400, -0.31497312, 0.57710314, 0.9601946, 0, 0, 0, 0, -1, 0, 0, 0
5035400, 0.23789978, -0.05050659, -0.10574341, 5035400, -0.7717682, 0.55744886, 0.3955288, 0, 0, 0, 0, -1, 0, 0, 0
4943848, 0.18171692, -0.17756653, -0.05076599, 5035400, -0.7717682, 0.55744886, 0.3955288, 0, 0, 0, 0, -1, 0, 0, 0
4943848, 0.18171692, -0.17756653, -0.05076599, 4943848, -0.8111633, 0.27006865, -0.9773674, 0, 0, 0, 0, -1, 0, 0, 0
4943847, 0.10595703, -0.19345093, -0.0067749023, 4943847, -0.4949623, 0.10360861, -1.4022474, 0, 0, 0, 0, -1, 0, 0, 0
4943848, -0.017425537, -0.16044617, 0.007858276, 4943848, -0.12575531, 0.056393623, -1.6973658, 0, 0, 0, 0, -1, 0, 0, 0
4943848, -0.14569092, -0.08226013, 0.004196167, 4943848, 0.14501315, -0.049455643, -1.7564735, 0, 0, 0, 0, -1, 0, 0, 0
4943847, -0.28375244, 0.011795044, 5.493164E-4, 4943847, 0.24132752, -0.118673325, -1.5843077, 0, 0, 0, 0, -1, 0, 0, 0
4943848, -0.42791748, 0.1156311, -0.0031280518, 4943848, 0.35778338, -0.16948366, -1.2990894, 0, 0, 0, 0, -1, 0, 0, 0
4943848, -0.5488739, 0.2084961, -0.008010864, 4943848, 0.27317265, -0.14958382, -0.9974737, 0, 0, 0, 0, -1, 0, 0, 0
4943847, -0.65760803, 0.28912354, 5.493164E-4, 4943847, 0.08478466, -0.17789698, -0.80514336, 0, 0, 0, 0, -1, 0, 0, 0
4943848, -0.76512146, 0.35020447, 0.022521973, 4943848, -0.11250159, -0.30770063, -0.46611977, 0, 0, 0, 0, -1, 0, 0, 0
4943848, -0.8310852, 0.38441467, 0.046951294, 4943848, -0.3675709, -0.7518296, -0.03598404, 0, 0, 0, 0, -1, 0, 0, 0
4943847, -0.8530731, 0.33921814, 0.092163086, 4943847, -0.49587646, -0.8351822, 0.44863033, 0, 0, 0, 0, -1, 0, 0, 0
4943848, -0.8029785, 0.20726013, 0.1288147, 4943848, -0.4298342, -0.55670214, 0.89333344, 0, 0, 0, 0, -1, 0, 0, 0
4943848, -0.6905823, 0.011795044, 0.13369751, 4943848, -0.24401093, -0.29551554, 1.2899876, 0, 0, 0, 0, -1, 0, 0, 0
4943847, -0.5244293, -0.15800476, 0.123916626, 4943847, 0.063296676, -0.022983551, 1.6410475, 0, 0, 0, 0, -1, 0, 0, 0
4943848, -0.34361267, -0.23010254, 0.111709595, 4943848, 0.35171932, 0.16684055, 1.7629938, 0, 0, 0, -1, -1, 59858646694715, 0, 0
4943848, -0.16157532, -0.21542358, 0.07261658, 4943848, 0.59983957, 0.28455114, 1.7122078, 0, 0, 0, -1, -1, 0, 0, 0
4943847, -0.016189575, -0.13723755, 0.020065308, 4943847, 0.80114293, 0.36525536, 1.4184303, 0, 0, 0, -1, -1, 0, 0, 0
4943848, 0.09373474, -0.06149292, -0.016571045, 4943848, 0.75305706, 0.32612467, 1.0803881, 0, 0, 0, -1, -1, 0, 0, 0
4943848, 0.15603638, 0.005706787, -0.048324585, 4943848, 0.5470402, 0.21777916, 0.7232342, 0, 0, 0, -1, -1, 0, 0, 0
4943847, 0.18780518, 0.06187439, -0.040985107, 4943847, 0.23473603, 0.11932135, 0.39189148, 0, 0, 0, -1, -1, 0, 0, 0
4943848, 0.18171692, 0.111968994, -0.01777649, 4943848, -0.04546851, 0.026808262, 0.01997757, 0, 0, 0, -1, -1, 0, 0, 0
7049560, 0.14627075, 0.1816101, 0.016418457, 7049560, -0.31993714, -0.080751896, -0.4615202, 0, 0, 0, -1, -1, 0, 0, 0
5035401, 0.10839844, 0.24879456, 0.051834106, 5035401, -0.33211026, 0.004825115, -0.45781803, 0, 0, 0, -1, -1, 0, 0, 0
5035400, 0.06442261, 0.28424072, 0.07505798, 5035400, -0.25358456, 0.080361366, -0.46101093, 0, 0, 0, -1, -1, 0, 0, 0
5004882, -0.006439209, 0.26591492, 0.08728027, 5035400, -0.25358456, 0.080361366, -0.46101093, 0, 0, 0, -1, -1, 0, 0, 0
4974366, -0.029632568, 0.22558594, 0.083602905, 5035401, -0.23264402, 0.20302534, -0.3196268, 0, 0, 0, -1, -1, 0, 0, 0
4943847, -0.03086853, 0.18528748, 0.056732178, 5004882, -0.20399806, 0.2323103, -0.2858076, 0, 0, 0, -1, -1, 0, 0, 0
4943848, -0.018630981, 0.1437378, 0.034744263, 4974366, -0.18235978, 0.26733732, -0.22337532, 0, 0, 0, -1, -1, 0, 0, 0
4943848, -0.016189575, 0.11074829, 0.013977051, 4943847, -0.13563716, 0.26498938, -0.13339901, 0, 0, 0, -1, -1, 0, 0, 0
4943848, -0.016189575, 0.11074829, 0.013977051, 4943848, -0.114803314, 0.24768257, -0.26104355, 0, 0, 0, -1, -1, 0, 0, 0
4943847, -0.0015563965, 0.080200195, -0.0067749023, 4943847, -0.16431248, 0.20399904, -0.29477596, 0, 0, 0, -1, -1, 0, 0, 0
4943848, 0.003326416, 0.043548584, -0.015335083, 4943847, -0.16431248, 0.20399904, -0.29477596, 0, 0, 0, -1, -1, 0, 0, 0
4943847, -0.012542725, 0.019134521, -0.016571045, 4943848, -0.19376284, 0.12035751, -0.26738548, 0, 0, 0, -1, -1, 0, 0, 0
4943848, -0.024749756, 8.239746E-4, -0.0104522705, 4943848, -0.22856265, 0.053055286, -0.24918175, 0, 0, 0, -1, -1, 0, 0, 0
4943848, -0.024749756, 8.239746E-4, 0.0029907227, 4943847, -0.2280646, -0.0019516945, -0.11507034, 0, 0, 0, -1, -1, 0, 0, 0
4943847, -0.017425537, -0.043167114, 0.0029907227, 4943848, -0.21508753, -0.050538063, -0.04739952, 0, 0, 0, -1, -1, 0, 0, 0
4943848, 0.007003784, -0.07859802, 0.010299683, 4943848, -0.18018591, -0.07810116, 0.004012108, 0, 0, 0, -1, -1, 0, 0, 0
4943848, 0.018005371, -0.115249634, 0.013977051, 4943847, -0.13628972, -0.11196709, -0.046875954, 0, 0, 0, -1, -1, 0, 0, 0
4913330, 0.026550293, -0.12623596, 0.013977051, 4943848, -0.08716768, -0.1526289, 0.056616783, 0, 0, 0, -1, -1, 0, 0, 0
4913330, 0.026550293, -0.12623596, 0.013977051, 4913330, 0.09695095, -0.11708832, 0.05793667, 0, 0, 0, -1, -1, 0, 0, 0
4669189, 0.0289917, -0.088378906, -0.0031280518, 4913330, 0.09695095, -0.11708832, 0.05793667, 0, 0, 0, -1, -1, 0, 0, 0
4943848, 0.021652222, -0.056610107, -0.005569458, 5249023, 0.18421811, -0.093345165, 0.12573719, 0, 0, 0, -1, -1, 0, 0, 0
4943848, 0.019210815, -0.03338623, 0.0017547607, 4669189, 0.22865647, -0.04245186, 0.087905884, 0, 0, 0, -1, -1, 0, 0, 0
4943848, 0.019210815, -0.03338623, 0.0017547607, 4943848, 0.25615764, 0.019670963, 0.1471119, 0, 0, 0, -1, -1, 0, 0, 0
4943847, 0.00944519, -0.017501831, 0.0017547607, 4943847, 0.21516347, 0.01743269, 0.157938, 0, 0, 0, -1, -1, 0, 0, 0
4943848, -0.005203247, -0.0028533936, -0.0104522705, 4943848, 0.14315, 0.02341652, 0.2022314, 0, 0, 0, -1, -1, 0, 0, 0
4943848, 0.013122559, 0.0069122314, -0.016571045, 4943848, 0.09409374, 0.04945755, 0.25269604, 0, 0, 0, -1, -1, 0, 0, 0
4943847, 0.014328003, 0.009353638, -0.02633667, 4943847, 0.03853923, 0.029173851, 0.22254086, 0, 0, 0, -1, -1, 0, 0, 0
7049561, 0.024093628, 0.013031006, -0.02633667, 7049561, -0.023836464, -0.0018229485, 0.12573242, 0, 0, 0, -1, -1, 0, 0, 0
5035400, 0.0448761, 0.019134521, -0.031219482, 5035400, -0.05429399, 0.02321291, -0.018332481, 0, 0, 0, -1, -1, 0, 0, 0
5004883, 0.0448761, 0.024017334, -0.019012451, 5004883, -0.071136355, 0.032064438, -0.09114361, 0, 0, 0, -1, -1, 0, 0, 0
5065918, 0.047317505, 0.015457153, -0.015335083, 5065918, -0.07025713, 0.062316418, -0.1677599, 0, 0, 0, -1, -1, 0, 0, 0
5035401, 0.047317505, 0.008148193, -0.01411438, 5035401, -0.10436118, 0.11433983, -0.26188087, 0, 0, 0, -1, -1, 0, 0, 0
4943847, 0.038772583, -0.0052948, -0.0067749023, 4943847, -0.08937508, 0.13327217, -0.26089668, 0, 0, 0, -1, -1, 0, 0, 0
4943848, 0.022888184, -0.024841309, -0.0031280518, 4943848, -0.09986681, 0.08275604, -0.15999031, 0, 0, 0, -1, -1, 0, 0, 0
4943848, 0.011886597, -0.028503418, 0.0029907227, 4943848, -0.0975402, 0.008693695, 0.004412651, 0, 0, 0, -1, -1, 0, 0, 0
4943847, 0.003326416, -0.018737793, 0.007858276, 4943847, -0.0970121, -0.0071821213, 0.10531044, 0, 0, 0, -1, -1, 0, 0, 0
4943848, -0.0039978027, -0.0138549805, 0.015182495, 4943848, -0.04706812, -0.031434536, 0.17863178, 0, 0, 0, -1, -1, 0, 0, 0
4943847, -0.017425537, 0.005706787, 0.013977051, 4943847, -0.014971912, -0.04639101, 0.17314911, 0, 0, 0, -1, -1, 0, 0, 0
4943848, -0.007659912, 0.019134521, 0.028625488, 4943848, -0.017951787, 0.0046248436, 0.24480247, 0, 0, 0, -1, -1, 0, 0, 0
4943848, -0.011306763, 0.020339966, 0.027420044, 4943848, -0.042298436, 0.03463459, 0.33042622, 0, 0, 0, -1, -1, 0, 0, 0
4943847, -0.0015563965, 0.01789856, 0.028625488, 4943847, -0.108914495, 0.04144144, 0.36327934, 0, 0, 0, -1, -1, 0, 0, 0
4943848, 0.01676941, 0.03010559, 0.02986145, 4943848, -0.13780242, 0.10605335, 0.39025402, 0, 0, 0, -1, -1, 0, 0, 0
4943848, 0.0289917, 0.021575928, 0.018859863, 4943848, -0.13573456, 0.06903219, 0.24678898, 0, 0, 0, -1, -1, 0, 0, 0
4943847, 0.035095215, 0.01789856, 0.022521973, 4943847, -0.10116136, 0.11002827, 0.08652973, 0, 0, 0, -1, -1, 0, 0, 0
4943848, 0.043655396, 0.016693115, 0.013977051, 4943848, -0.07969129, 0.08187628, -0.021285057, 0, 0, 0, -1, -1, 0, 0, 0
4943848, 0.047317505, 0.0032653809, 0.007858276, 4943848, -0.104985654, 0.084955215, -0.15690517, 0, 0, 0, -1, -1, 0, 0, 0
4943847, 0.042419434, 0.004470825, 0.00541687, 4943847, -0.10434121, 0.05837965, -0.31425285, 0, 0, 0, -1, -1, 0, 0, 0
4943848, 0.038772583, -0.012619019, 5.493164E-4, 4943848, -0.12714785, 0.078179836, -0.36049557, 0, 0, 0, -1, -1, 0, 0, 0
4943848, 0.031433105, -0.027297974, -0.0031280518, 4943848, -0.08888906, 0.0903697, -0.45676613, 0, 0, 0, -1, -1, 0, 0, 0
4943847, 0.011886597, -0.024841309, -0.004333496, 4943847, -0.06807637, 0.044648647, -0.4787655, 0, 0, 0, -1, -1, 0, 0, 0
4943848, -0.012542725, -0.023620605, -0.016571045, 4943848, -0.06847948, 0.04896021, -0.46096802, 0, 0, 0, -1, -1, 0, 0, 0
4943848, -0.023513794, -0.008972168, -0.016571045, 4943848, -0.05087143, 0.04968214, -0.39569378, 0, 0, 0, -1, -1, 0, 0, 0
4943847, -0.035751343, -0.007736206, -0.015335083, 4943847, 3.3527613E-4, 0.03290224, -0.16977501, 0, 0, 0, -1, -1, 0, 0, 0
4943848, -0.035751343, -0.007736206, -0.016571045, 4943848, 0.045284986, 0.022714615, 0.110728264, 0, 0, 0, -1, -1, 0, 0, 0
5035400, -0.005203247, 0.002029419, 0.009094238, 4943848, 0.045284986, 0.022714615, 0.110728264, 0, 0, 0, -1, -1, 0, 0, 0
5310059, 0.020446777, 8.239746E-4, 0.016418457, 7049561, 0.028770745, -0.034478664, 0.4113598, 0, 0, 0, -1, -1, 0, 0, 0
4760742, 0.043655396, -0.0040740967, 0.007858276, 5035400, 0.052817047, -0.033617496, 0.4332924, 0, 0, 0, -1, -1, 0, 0, 0
4760742, 0.043655396, -0.0040740967, 0.007858276, 4760742, 0.020421803, 0.014428139, 0.361619, 0, 0, 0, -1, -1, 0, 0, 0
4943848, 0.087631226, -4.119873E-4, 0.00541687, 4760742, 0.020421803, 0.014428139, 0.361619, 0, 0, 0, -1, -1, 0, 0, 0
4943847, 0.11329651, -4.119873E-4, 5.493164E-4, 5035400, -0.008682668, 0.026400566, 0.2837677, 0, 0, 0, -1, -1, 0, 0, 0
4943848, 0.13038635, 0.005706787, 5.493164E-4, 4943848, 0.006472528, 0.07376957, 0.24384785, 0, 0, 0, -1, -1, 0, 0, 0
4943848, 0.13038635, 0.005706787, 5.493164E-4, 4943848, 0.0048104525, 0.08440447, 0.004638672, 0, 0, 0, -1, -1, 0, 0, 0
4943847, 0.11695862, 0.013031006, -0.0031280518, 4943848, 0.0048104525, 0.08440447, 0.004638672, 0, 0, 0, -1, -1, 0, 0, 0
4913330, 0.10961914, 0.016693115, 0.0017547607, 4943848, 1.3709068E-6, 0.086209774, -0.14994335, 0, 0, 0, -1, -1, 0, 0, 0
4974366, 0.091293335, -0.29606628, -0.0104522705, 4943847, -0.03673899, 0.0452528, -0.30492496, 0, 0, 0, -1, -1, 0, 0, 0
4974366, 0.091293335, -0.29606628, -0.0104522705, 4974366, -0.016437352, 0.013865471, -0.47662163, 0, 0, 0, -1, -1, 0, 0, 0
4943847, 0.091293335, 0.0105896, -0.0104522705, 4943847, -0.0022244155, 0.0598197, -0.51740456, 0, 0, 0, -1, -1, 0, 0, 0
4943848, 0.043655396, 0.004470825, -0.005569458, 4943847, -0.0022244155, 0.0598197, -0.51740456, 0, 0, 0, -1, -1, 0, 0, 0
4943847, 0.021652222, 0.004470825, -0.004333496, 4943848, 0.011449516, 0.081255436, -0.51905537, 0, 0, 0, -1, -1, 0, 0, 0
4943847, 0.021652222, 0.004470825, -0.004333496, 4943847, -4.0614605E-4, 0.08629656, -0.48975468, 0, 0, 0, -1, -1, 0, 0, 0
4943848, -0.05039978, 0.0069122314, -0.016571045, 4943847, -4.0614605E-4, 0.08629656, -0.48975468, 0, 0, 0, -1, -1, 0, 0, 0
4913330, -0.08216858, 0.01789856, -0.0104522705, 4943848, -0.0071066916, 0.07149553, -0.34406376, 0, 0, 0, -1, -1, 0, 0, 0
4974365, -0.09927368, 0.002029419, -0.0031280518, 4943848, -0.09667045, 0.109092236, -0.26489735, 0, 0, 0, -1, -1, 0, 0, 0
4974365, -0.09927368, 0.002029419, -0.0031280518, 4974365, -0.24738228, 0.043513298, 0.21816063, 0, 0, 0, -1, -1, 0, 0, 0
4943847, -0.100494385, -0.04194641, 0.0115356445, 4974365, -0.24738228, 0.043513298, 0.21816063, 0, 0, 0, -1, -1, 0, 0, 0
4943848, -0.093170166, -0.060272217, 0.023742676, 4943848, -0.22339532, 0.055216312, 0.48429108, 0, 0, 0, -1, -1, 0, 0, 0
4943848, -0.06750488, -0.07493591, 0.012741089, 4943847, -0.10781303, 0.06669903, 0.6182003, 0, 0, 0, -1, -1, 0, 0, 0
4974365, -0.04307556, -0.07003784, 0.0029907227, 4943848, -0.06736368, 0.044425964, 0.7882242, 0, 0, 0, -1, -1, 0, 0, 0
4913330, -0.03819275, -0.06515503, -0.004333496, 4943848, 0.027311325, 0.070344925, 0.8317356, 0, 0, 0, -1, -1, 0, 0, 0
4943848, -0.03086853, -0.046829224, 5.493164E-4, 4974365, 0.07442418, 0.039134502, 0.70164394, 0, 0, 0, -1, -1, 0, 0, 0
4943848, -0.03086853, -0.046829224, 5.493164E-4, 4943848, -0.33562964, -0.018291473, 0.707283, 0, 0, 0, -1, -1, 0, 0, 0
7049560, -0.006439209, 8.239746E-4, 0.026184082, 7049560, -0.6515311, -0.14397478, 0.73612213, 0, 0, 0, -1, -1, 0, 0, 0
5035400, 0.03753662, 0.039901733, 0.079940796, 5035400, -0.7538028, -0.2600174, 0.545743, 0, 0, 0, -1, -1, 0, 0, 0
5004883, 0.08518982, 0.022781372, 0.12147522, 5004883, -0.59593034, -0.3334093, 0.33584785, 0, 0, 0, -1, -1, 0, 0, 0
5065918, 0.12550354, -0.007736206, 0.14468384, 5065918, -0.31634447, -0.29647303, 0.054584503, 0, 0, 0, -1, -1, 0, 0, 0
5035401, 0.18415833, 0.04966736, 0.14712524, 5035401, 0.20150244, -0.019714832, -0.4508953, 0, 0, 0, -1, -1, 0, 0, 0
4943847, 0.3625183, 0.5762329, 0.11659241, 4943847, 1.329483, 0.6346793, -2.0927362, 0, 0, 0, -1, -1, 0, 0, 0
4943848, 0.44070435, 0.8340149, 0.050628662, 4943848, 1.0632317, 0.42033052, -2.8154182, 0, 0, 0, -1, -1, 0, 0, 0
4943848, 0.3759613, 0.71673584, -0.040985107, 4943848, 0.8627106, 0.65863323, -2.6652317, 0, 0, 0, -1, -1, 0, 0, 0
4943847, 0.2611084, 0.4491577, -0.14361572, 4943847, 0.20779997, 0.6175952, -2.6531115, 1, 843, 1091, 0, -1, 0, 0, 521668906
4943848, 0.119400024, 0.20970154, -0.20713806, 4943848, -0.74264187, 0.30857563, -2.4396954, 0, 0, 0, 0, -1, 0, 0, 0
4943848, -0.052841187, 0.07409668, -0.1851654, 4943848, -1.1419345, -0.03687191, -1.7387419, 0, 0, 0, 0, -1, 0, 0, 0
4943847, -0.19210815, 0.022781372, -0.10696411, 4943847, -0.8117669, -0.3169999, -0.92093754, 0, 0, 0, 0, -1, 0, 0, 0
4943848, -0.26908875, -0.008972168, -0.032440186, 4943848, -0.7075386, -0.64456415, -0.4674797, 0, 0, 0, 0, -1, 0, 0, 0
4943848, -0.32894897, 0.05455017, 0.027420044, 4943848, -0.08381361, -0.6114502, -0.645731, 0, 0, 0, 0, -1, 0, 0, 0
4943847, -0.3851471, 0.08509827, 0.048187256, 4943847, 0.62718296, -0.18403053, 0.14447594, 0, 0, 0, 0, -1, 0, 0, 0
4943848, -0.39248657, -0.017501831, 0.035949707, 4943848, 0.6487192, 0.16410685, 0.9718313, 0, 0, 0, 0, -1, 0, 0, 0
4943848, -0.36561584, -0.12503052, 0.00541687, 4943848, 0.61947197, 0.3592534, 1.326293, 0, 0, 0, 0, -1, 0, 0, 0
4943847, -0.30207825, -0.18365479, -0.037338257, 4943847, 0.73166656, 0.40252352, 1.4456549, 0, 0, 0, 0, -1, 0, 0, 0
4943848, -0.2361145, -0.20689392, -0.07519531, 4943848, 0.57118344, 0.28330994, 1.4332609, 0, 0, 0, 0, -1, 0, 0, 0
4913330, -0.21043396, -0.22521973, -0.095962524, 4913330, 0.26353925, 0.14609814, 1.2445526, 0, 0, 0, 0, -1, 0, 0, 0
4974365, -0.19210815, -0.26185608, -0.0861969, 4974365, 0.072307825, -0.16744518, 1.0991364, 0, 0, 0, 0, -1, 0, 0, 0
4943848, -0.18722534, -0.28752136, -0.064208984, 4943848, -0.07642299, -0.45322323, 1.2122965, 0, 0, 0, 0, -1, 0, 0, 0
4913330, -0.1884613, -0.28507996, -0.04222107, 4913330, -0.24540204, -0.66669464, 1.3492861, 0, 0, 0, 0, -1, 0, 0, 0
4974365, -0.18966675, -0.2545166, -0.008010864, 4974365, -0.40491313, -0.67046404, 1.4863901, 0, 0, 0, 0, -1, 0, 0, 0
4943848, -0.18966675, -0.2545166, 0.035949707, 4943848, -0.48725945, -0.5138316, 1.5449467, 0, 0, 0, 0, -1, 0, 0, 0
4943847, -0.18234253, -0.21542358, 0.035949707, 4943847, -0.54744947, -0.34590435, 1.5241671, 0, 0, 0, 0, -1, 0, 0, 0
4943848, -0.16645813, -0.20077515, 0.0640564, 4943848, -0.5326447, -0.18284655, 1.4380217, 0, 0, 0, 0, -1, 0, 0, 0
7049561, -0.13226318, -0.16168213, 0.12025452, 7049561, -0.46541646, 0.23714161, 1.0347872, 0, 0, 0, 0, -1, 0, 0, 0
5035400, -0.096832275, -0.10914612, 0.10926819, 5035400, -0.17581227, 0.373374, 0.9232302, 0, 0, 0, 0, -1, 0, 0, 0
5035401, 0.14871216, 0.12663269, 0.06651306, 5035400, -0.17581227, 0.373374, 0.9232302, 0, 0, 0, 0, -1, 0, 0, 0
5035401, 0.14871216, 0.12663269, 0.06651306, 5035401, 0.56641775, 0.51860857, 0.40148926, 0, 0, 0, -1, -1, 59859245078257, 0, 0
4943848, 0.3441925, 0.31356812, -0.021453857, 5035401, 0.56641775, 0.51860857, 0.40148926, 0, 0, 0, -1, -1, 0, 0, 0
4943847, 0.3454132, 0.28300476, -0.08253479, 5035400, 0.62484324, 0.458045, -0.39299488, 0, 0, 0, -1, -1, 0, 0, 0
4943848, 0.2794342, 0.19137573, -0.103302, 4943848, 0.4076982, 0.3759303, -1.1776257, 0, 0, 0, -1, -1, 0, 0, 0
4943848, 0.2794342, 0.19137573, -0.103302, 4943848, -0.3362009, 0.26551008, -2.1413097, 0, 0, 0, -1, -1, 0, 0, 0
4943848, 0.16093445, 0.08387756, -0.104522705, 4943848, -0.554567, 0.2048769, -2.3029823, 0, 0, 0, -1, -1, 0, 0, 0
4943848, 0.0082092285, -0.032180786, -0.09718323, 4943848, -0.554567, 0.2048769, -2.3029823, 0, 0, 0, -1, -1, 0, 0, 0
4943848, -0.12736511, -0.12135315, -0.07397461, 4943847, -0.6607499, 0.18404055, -2.2400103, 0, 0, 0, -1, -1, 0, 0, 0
4943847, -0.2336731, -0.16412354, -0.04222107, 4943848, -0.573894, 0.19232035, -1.7830315, 0, 0, 0, -1, -1, 0, 0, 0
4943848, -0.32528687, -0.16044617, -0.016571045, 4943848, -0.36486822, 0.1780119, -1.2197275, 0, 0, 0, -1, -1, 0, 0, 0
4943848, -0.32528687, -0.16044617, -0.016571045, 4943848, 0.15507126, 0.121738434, -0.06009102, 0, 0, 0, -1, -1, 0, 0, 0
4943847, -0.3851471, -0.13601685, -0.023895264, 4943848, 0.15507126, 0.121738434, -0.06009102, 0, 0, 0, -1, -1, 0, 0, 0
4943847, -0.3851471, -0.13601685, -0.023895264, 4943847, 0.19298762, 0.121890545, 0.9687643, 0, 0, 0, -1, -1, 0, 0, 0
4913330, -0.35705566, -0.11769104, -0.04586792, 4913330, 0.0689401, 0.06621933, 1.3104992, 0, 0, 0, -1, -1, 0, 0, 0
4974366, -0.30574036, -0.09814453, -0.06175232, 4974366, -0.049868643, 0.042778492, 1.5336971, 0, 0, 0, -1, -1, 0, 0, 0
4943848, -0.1359253, -0.11036682, -0.07519531, 4974366, -0.049868643, 0.042778492, 1.5336971, 0, 0, 0, -1, -1, 0, 0, 0
4943848, -0.05407715, -0.13113403, -0.07887268, 4943847, -0.14611024, -0.056925774, 1.7009268, 0, 0, 0, -1, -1, 0, 0, 0
4943848, -0.05407715, -0.13113403, -0.07887268, 4943848, -0.30154675, -0.25351238, 1.6907396, 0, 0, 0, -1, -1, 0, 0, 0
4943847, 0.039978027, -0.16412354, -0.067871094, 4943847, -0.37953115, -0.31519222, 1.366333, 0, 0, 0, -1, -1, 0, 0, 0
4943848, 0.18659973, -0.18733215, -0.031219482, 4943847, -0.37953115, -0.31519222, 1.366333, 0, 0, 0, -1, -1, 0, 0, 0
4943847, 0.22201538, -0.16900635, -0.005569458, 4943848, -0.30882978, -0.3287487, 1.0281916, 0, 0, 0, -1, -1, 0, 0, 0
4943847, 0.22201538, -0.16900635, -0.005569458, 4943847, -0.07207516, -0.16821575, 0.17212391, 0, 0, 0, -1, -1, 0, 0, 0
4943848, 0.2268982, -0.13723755, 0.006652832, 4943848, 0.032179087, -0.125206, -0.22051716, 0, 0, 0, -1, -1, 0, 0, 0
4943848, 0.2293396, -0.10546875, 0.010299683, 4943848, 0.035898715, -0.09675264, -0.5994234, 0, 0, 0, -1, -1, 0, 0, 0
7049560, 0.2110138, -0.063934326, 0.009094238, 7049560, 0.015721172, -0.021944046, -0.9089155, 0, 0, 0, -1, -1, 0, 0, 0
5035401, 0.18415833, -0.024841309, 0.00541687, 5035401, 0.105406255, 0.05881405, -1.0977411, 0, 0, 0, -1, -1, 0, 0, 0
5004882, 0.15483093, -4.119873E-4, 5.493164E-4, 5004882, 0.17561674, 0.093202114, -1.0799198, 0, 0, 0, -1, -1, 0, 0, 0
5065918, 0.119400024, 8.239746E-4, -0.0031280518, 5065918, 0.23380256, 0.105350494, -1.0374794, 0, 0, 0, -1, -1, 0, 0, 0
5035401, 0.083969116, 0.005706787, -0.008010864, 5035401, 0.2595538, 0.11201239, -0.8661175, 0, 0, 0, -1, -1, 0, 0, 0
4943847, 0.063201904, 0.01789856, -0.009216309, 4943847, 0.18653038, 0.1018734, -0.7545948, 0, 0, 0, -1, -1, 0, 0, 0
4943848, 0.03265381, 0.03501892, -0.020217896, 4943848, 0.15321577, 0.051713943, -0.64603615, 0, 0, 0, -1, -1, 0, 0, 0
4943848, -0.005203247, 0.052108765, -0.004333496, 4943848, 0.10730764, 0.07219887, -0.5032673, 0, 0, 0, -1, -1, 0, 0, 0
4913330, -0.045516968, 0.059432983, -6.866455E-4, 4913330, 0.06751469, 0.045885086, -0.29069328, 0, 0, 0, -1, -1, 0, 0, 0
4974365, -0.060180664, 0.06311035, 0.013977051, 4974365, 0.04618725, 0.03580141, -0.06951523, 0, 0, 0, -1, -1, 0, 0, 0
4943848, -0.0736084, 0.07409668, 0.022521973, 4943848, -0.02398777, 0.019476414, 0.1354847, 0, 0, 0, -1, -1, 0, 0, 0
4913330, -0.084609985, 0.08265686, 0.028625488, 4913330, -0.09325993, -0.022201538, 0.39994907, 0, 0, 0, -1, -1, 0, 0, 0
4974365, -0.072402954, 0.08998108, 0.028625488, 4974365, -0.14447728, -0.044481277, 0.5341034, 0, 0, 0, -1, -1, 0, 0, 0
4943848, -0.060180664, 0.098526, 0.03718567, 4943848, -0.15646616, -0.010808468, 0.5601082, 0, 0, 0, -1, -1, 0, 0, 0
4943847, -0.052841187, 0.07899475, 0.02986145, 4943847, -0.22833815, 0.0546875, 0.47529125, 0, 0, 0, -1, -1, 0, 0, 0
4943848, -0.04673767, 0.031341553, 0.024978638, 4943848, -0.33798358, 0.06671858, 0.46965027, 0, 0, 0, -1, -1, 0, 0, 0
4943848, -0.03086853, 8.239746E-4, 0.022521973, 4943848, -0.35048535, 0.10612631, 0.44117928, 0, 0, 0, -1, -1, 0, 0, 0
4943847, -0.010101318, -0.0211792, 0.026184082, 4943847, -0.3418134, 0.13099527, 0.42283154, 0, 0, 0, -1, -1, 0, 0, 0
4943848, 0.019210815, -0.028503418, 0.028625488, 4943848, -0.23719266, 0.08563852, 0.37243176, 0, 0, 0, -1, -1, 0, 0, 0
4943848, 0.03753662, -0.026062012, 0.023742676, 4943848, 0.02295947, 0.07436705, 0.25980282, 0, 0, 0, -1, -1, 0, 0, 0
4943847, 0.04975891, -0.0138549805, 0.017623901, 4943847, -0.078558, 0.06896591, 0.16000843, 0, 0, 0, -1, -1, 0, 0, 0
4943848, 0.058303833, -0.0138549805, 0.022521973, 4943848, -0.12698928, 0.038357735, 0.060822487, 0, 0, 0, -1, -1, 0, 0, 0
4913330, 0.058303833, 0.004470825, 0.022521973, 4913330, -0.1065965, 0.05425787, -0.068229675, 0, 0, 0, -1, -1, 0, 0, 0
4974365, 0.05342102, -0.0065307617, 0.022521973, 4974365, -0.111295134, 0.035339355, -0.045681953, 0, 0, 0, -1, -1, 0, 0, 0
4943848, 0.05342102, -0.024841309, 0.02986145, 4943848, -0.11696282, 0.017296314, -0.027067184, 0, 0, 0, -1, -1, 0, 0, 0
4943848, 0.05342102, -0.018737793, 0.027420044, 4943848, -0.07580274, 0.040508747, 0.027201653, 0, 0, 0, -1, -1, 0, 0, 0
4943847, 0.06808472, -0.0028533936, 0.027420044, 4943847, 0.036519974, 0.05335617, 0.10129452, 0, 0, 0, -1, -1, 0, 0, 0
7049561, 0.06930542, 0.03501892, 0.018859863, 7049561, 0.26616356, 0.11259794, 0.03687954, 0, 0, 0, -1, -1, 0, 0, 0
5035400, 0.0619812, 0.047225952, 0.009094238, 5035400, 0.2539261, 0.102844715, -0.019780159, 0, 0, 0, -1, -1, 0, 0, 0
5035400, 0.05709839, 0.064315796, -0.0031280518, 5035400, 0.18622515, 0.11293459, -0.14234924, 0, 0, 0, -1, -1, 0, 0, 0
5035401, 0.059539795, 0.076553345, -0.0104522705, 5035401, 0.10201055, 0.09736204, -0.115633965, 0, 0, 0, -1, -1, 0, 0, 0
5004883, 0.05709839, 0.07775879, -0.031219482, 5004883, 0.049754947, 0.09182501, -0.110248566, 0, 0, 0, -1, -1, 0, 0, 0
4974365, 0.055862427, 0.064315796, -0.044662476, 4974365, -0.008045554, 0.06449652, -0.023734093, 0, 0, 0, -1, -1, 0, 0, 0
4943848, 0.05342102, 0.053329468, -0.048324585, 4943848, -0.07998687, 0.02806139, 0.058342934, 0, 0, 0, -1, -1, 0, 0, 0
4974365, 0.06930542, 0.02645874, -0.06298828, 4943848, -0.07998687, 0.02806139, 0.058342934, 0, 0, 0, -1, -1, 0, 0, 0
4943848, 0.083969116, 0.0105896, -0.06298828, 4913330, -0.120075285, -0.0073890686, -0.026101112, 0, 0, 0, -1, -1, 0, 0, 0
4943848, 0.083969116, 0.0105896, -0.06298828, 4943848, -0.1861623, -0.03302431, -0.0655117, 0, 0, 0, -1, -1, 0, 0, 0
4943848, 0.087631226, -0.008972168, -0.06175232, 4943848, -0.1861623, -0.03302431, -0.0655117, 0, 0, 0, -1, -1, 0, 0, 0
4943848, 0.06930542, 0.011795044, -0.031219482, 4943847, -0.22208345, -0.024758339, -0.047325134, 0, 0, 0, -1, -1, 0, 0, 0
4943847, 0.08152771, 0.011795044, -0.009216309, 4943848, -0.18631381, -0.06983948, -0.114990234, 0, 0, 0, -1, -1, 0, 0, 0
4943847, 0.08152771, 0.011795044, -0.009216309, 4943847, -0.17614853, -0.10675526, -0.066370964, 0, 0, 0, -1, -1, 0, 0, 0
4943848, 0.0778656, -0.0016174316, 5.493164E-4, 4943848, -0.12206018, -0.07684851, -0.07298279, 0, 0, 0, -1, -1, 0, 0, 0
4913331, 0.07052612, -0.0688324, 0.023742676, 4943848, -0.12206018, -0.07684851, -0.07298279, 0, 0, 0, -1, -1, 0, 0, 0
4974365, 0.05709839, -0.0712738, 0.044509888, 4943847, -0.15093803, -0.07211971, -0.0286932, 0, 0, 0, -1, -1, 0, 0, 0
4974365, 0.05709839, -0.0712738, 0.044509888, 4974365, -0.17273945, 0.029554367, -0.02479744, 0, 0, 0, -1, -1, 0, 0, 0
4943848, 0.058303833, -0.04194641, 0.07015991, 4974365, -0.17273945, 0.029554367, -0.02479744, 0, 0, 0, -1, -1, 0, 0, 0
4943848, 0.054656982, -0.016296387, 0.059173584, 4943847, 0.03850901, 0.062078476, -0.080851555, 0, 0, 0, -1, -1, 0, 0, 0
4943847, 0.05709839, 8.239746E-4, 0.038406372, 4943848, 0.2672512, 0.13496876, -0.17207909, 0, 0, 0, -1, -1, 0, 0, 0
4943847, 0.05709839, 8.239746E-4, 0.038406372, 4943847, 0.4496598, 0.18240929, -0.24526119, 0, 0, 0, -1, -1, 0, 0, 0
4913330, 0.042419434, 0.043548584, 0.0115356445, 4943847, 0.4496598, 0.18240929, -0.24526119, 0, 0, 0, -1, -1, 0, 0, 0
4974365, 0.03388977, 0.05822754, 5.493164E-4, 4943848, 0.39887154, 0.17455244, -0.27975368, 0, 0, 0, -1, -1, 0, 0, 0
4943848, 0.021652222, 0.06555176, -0.011657715, 4913330, 0.2852614, 0.17323351, -0.31034184, 0, 0, 0, -1, -1, 0, 0, 0
4943848, 0.010665894, 0.055786133, -0.016571045, 4974365, 0.18364489, 0.13172531, -0.3044243, 0, 0, 0, -1, -1, 0, 0, 0
4943848, 0.010665894, 0.055786133, -0.016571045, 4943848, -0.13840568, 0.04137039, -0.23635864, 0, 0, 0, -1, -1, 0, 0, 0
7049560, 0.013122559, 0.059432983, -0.011657715, 7049560, -0.2579062, -0.027665138, -0.16937447, 0, 0, 0, -1, -1, 0, 0, 0
5035401, 0.0082092285, 0.05088806, -0.0067749023, 5035401, -0.3142594, -0.06376648, -0.11410236, 0, 0, 0, -1, -1, 0, 0, 0
5035400, 0.010665894, 0.032562256, -0.0031280518, 5035400, -0.40121156, -0.12878418, -0.008135796, 0, 0, 0, -1, -1, 0, 0, 0
5035400, 0.0057678223, 0.024017334, -6.866455E-4, 5035400, -0.43605185, -0.13965368, 0.08663368, 0, 0, 0, -1, -1, 0, 0, 0
5035401, 0.01676941, 0.013031006, 0.013977051, 5035401, -0.40156764, -0.14053726, 0.13167763, 0, 0, 0, -1, -1, 0, 0, 0
4943847, 0.024093628, 0.019134521, 0.02986145, 4943847, -0.3455677, -0.17339563, 0.1942749, 0, 0, 0, -1, -1, 0, 0, 0
4943848, 0.03753662, 0.016693115, 0.0335083, 4943848, -0.36302227, -0.15433788, 0.09269905, 0, 0, 0, -1, -1, 0, 0, 0
4943848, 0.054656982, 0.0069122314, 0.034744263, 4943848, -0.32196045, -0.12800074, 0.022051811, 0, 0, 0, -1, -1, 0, 0, 0
4943847, 0.06442261, 0.002029419, 0.038406372, 4943847, -0.34427017, -0.12459993, 0.06453133, 0, 0, 0, -1, -1, 0, 0, 0
4943848, 0.059539795, -4.119873E-4, 0.043289185, 4943848, -0.28847754, -0.099488735, 0.10465622, 0, 0, 0, -1, -1, 0, 0, 0
4943848, 0.075424194, -0.0040740967, 0.04206848, 4943848, -0.22657877, -0.08812189, 0.15278625, 0, 0, 0, -1, -1, 0, 0, 0
4943847, 0.08030701, -0.0065307617, 0.02986145, 4943847, -0.1483646, -0.029743195, 0.23198509, 0, 0, 0, -1, -1, 0, 0, 0
4943848, 0.08641052, -4.119873E-4, 0.028625488, 4943848, -0.043981254, 0.016838074, 0.21559906, 0, 0, 0, -1, -1, 0, 0, 0
4913330, 0.10595703, -0.016296387, 0.018859863, 4913330, 0.085987926, -0.02123928, 0.22663593, 0, 0, 0, -1, -1, 0, 0, 0
4974365, 0.11695862, -0.024841309, 0.007858276, 4974365, 0.080711186, 0.0062942505, 0.20043373, 0, 0, 0, -1, -1, 0, 0, 0
4943848, 0.119400024, -0.0211792, 0.006652832, 4943848, 0.09930533, 0.04871607, 0.27625847, 0, 0, 0, -1, -1, 0, 0, 0
4943848, 0.13894653, -0.015060425, -0.0067749023, 4943848, 0.13172293, 0.10777712, 0.24038887, 0, 0, 0, -1, -1, 0, 0, 0
4943847, 0.16827393, -0.016296387, -0.023895264, 4943847, 0.17887956, 0.14857101, 0.15375996, 0, 0, 0, -1, -1, 0, 0, 0
4943848, 0.16703796, -0.022399902, -0.037338257, 4943848, 0.1304056, 0.15933228, 0.05476284, 0, 0, 0, -1, -1, 0, 0, 0
4943848, 0.16703796, -0.022399902, -0.021453857, 4943848, -0.38127583, -0.21451521, -0.13148022, 0, 0, 0, -1, -1, 0, 0, 0
4943847, 0.14382935, -0.034622192, -0.021453857, 4943847, -0.7820228, -0.20028162, -0.28499508, 0, 0, 0, -1, -1, 0, 0, 0
4943848, 0.12428284, -0.0370636, 0.010299683, 4943848, -0.55449283, -0.11759615, -0.41419888, 0, 0, 0, -1, -1, 0, 0, 0
4943848, 0.09741211, -0.0370636, 0.038406372, 4943848, -0.3107924, -0.04160881, -0.34174442, 0, 0, 0, -1, -1, 0, 0, 0
4943847, 0.050979614, -0.0382843, 0.06161499, 4943847, -0.2509963, -0.11274576, -0.31162643, 0, 0, 0, -1, -1, 0, 0, 0
4943848, 0.026550293, -0.023620605, 0.071395874, 4943848, -0.5194883, -0.18041754, -0.30832386, 0, 0, 0, -1, -1, 0, 0, 0
4943848, -0.0039978027, -0.0040740967, 0.08604431, 4943848, -0.2946109, -5.674362E-4, -0.12289238, 0, 0, 0, -1, -1, 0, 0, 0
4943847, -0.007659912, 0.019134521, 0.0811615, 4943847, -0.111772, 0.030397892, 0.02814293, 0, 0, 0, -1, -1, 0, 0, 0
7049561, 0.0082092285, 0.04234314, 0.07872009, 7049561, -0.5125755, -0.08804226, 0.20790005, 0, 0, 0, -1, -1, 0, 0, 0
5035400, 0.024093628, 0.07043457, 0.07872009, 5035400, -0.18041655, 0.017158508, 0.41109753, 0, 0, 0, -1, -1, 0, 0, 0
5035401, 0.031433105, 0.07409668, 0.07749939, 5035401, 0.1383946, 0.108085155, 0.56381226, 0, 0, 0, -1, -1, 0, 0, 0
5035400, 0.063201904, 0.05455017, 0.07015991, 5035400, 0.2434532, 0.1716547, 0.61846924, 0, 0, 0, -1, -1, 0, 0, 0
5035400, 0.09373474, 0.03501892, 0.0493927, 5035400, 0.028266966, 0.0076298714, 0.5180044, 0, 0, 0, -1, -1, 0, 0, 0
4943848, 0.09373474, 0.03501892, 0.060394287, 4943848, 0.001483053, 0.13105917, 0.5620899, 0, 0, 0, -1, -1, 0, 0, 0
4943847, 0.13526917, 8.239746E-4, 0.048187256, 4943848, 0.001483053, 0.13105917, 0.5620899, 0, 0, 0, -1, -1, 0, 0, 0
4943848, 0.16339111, -0.0028533936, 0.0335083, 4943848, 0.50947666, 0.2175107, 0.7927942, 0, 0, 0, -1, -1, 0, 0, 0
4913330, 0.19760132, 0.02645874, 0.020065308, 4943847, 0.61680865, 0.3269043, 0.8168974, 0, 0, 0, -1, -1, 0, 0, 0
4974365, 0.2268982, 0.04598999, 0.0115356445, 4943848, 0.5760598, 0.34605312, 0.8104439, 0, 0, 0, -1, -1, 0, 0, 0
4974365, 0.2268982, 0.04598999, 0.0115356445, 4974365, 0.003669709, 0.15511799, 0.7053871, 0, 0, 0, -1, -1, 0, 0, 0
4943848, 0.25378418, 0.04598999, -6.866455E-4, 4974365, 0.003669709, 0.15511799, 0.7053871, 0, 0, 0, -1, -1, 0, 0, 0
4943847, 0.25990295, 0.020339966, 0.010299683, 4943848, -0.27873266, 0.03821993, 0.6210747, 0, 0, 0, -1, -1, 0, 0, 0
4943848, 0.24401855, -0.023620605, 0.02986145, 4943848, -0.442811, -0.086028576, 0.34524155, 0, 0, 0, -1, -1, 0, 0, 0
4943848, 0.24401855, -0.023620605, 0.02986145, 4943848, -0.6842057, -0.7188983, -3.3691378, 0, 0, 0, -1, -1, 0, 0, 0
4943847, 0.2611084, -1.5483398, 0.13369751, 4943848, -0.6842057, -0.7188983, -3.3691378, 0, 0, 0, -1, -1, 0, 0, 0
4943848, 0.23425293, -1.681488, 0.10682678, 4943848, -0.5147925, -0.3848672, -5.3458424, 0, 0, 0, -1, -1, 0, 0, 0
4943848, 0.17192078, -1.2758942, -0.0067749023, 4943847, -0.3810808, 0.15322685, -3.3697805, 1, 109, 874, 0, -1, 0, 0, 651074375
4943848, 0.17192078, -1.2758942, -0.0067749023, 4943848, 2.2252731, 1.1277614, -0.46218967, 0, 0, 0, 0, -1, 0, 0, 0
4943847, 0.15359497, -0.60150146, -0.13995361, 4943847, 2.0836642, 0.7737436, 0.37662125, 0, 0, 0, 0, -1, 0, 0, 0
4943848, 0.19880676, -0.107910156, -0.21813965, 4943848, 1.6878821, 0.33197594, -0.26134205, 0, 0, 0, 0, -1, 0, 0, 0
4943848, 0.17071533, 0.01789856, -0.26335144, 4943848, 0.9369104, 0.15234566, -1.2642403, 0, 0, 0, 0, -1, 0, 0, 0
4943847, 0.08274841, -0.10914612, -0.29512024, 4943847, -0.15535057, -0.02892065, -1.6044235, 0, 0, 0, 0, -1, 0, 0, 0
4974365, -0.15913391, -0.27896118, -0.18392944, 4943847, -0.15535057, -0.02892065, -1.6044235, 0, 0, 0, 0, -1, 0, 0, 0
4974365, -0.15913391, -0.27896118, -0.18392944, 4974365, -1.2942379, -0.22685432, -0.82304955, 0, 0, 0, 0, -1, 0, 0, 0
5218506, -0.23487854, -0.17512512, -0.0715332, 5218506, -0.6361712, -0.20851326, -0.40819645, 0, 0, 0, 0, -1, 0, 0, 0
4638672, -0.28985596, -0.024841309, 0.013977051, 4638672, 0.09626475, -0.12065458, 0.10546303, 0, 0, 0, 0, -1, 0, 0, 0
7049561, -0.33384705, 0.1156311, 0.048187256, 7049561, 0.44536996, 0.0737834, 0.6499815, 0, 0, 0, 0, -1, 0, 0, 0
5065918, -0.34605408, 0.20117188, 0.056732178, 5065918, 0.43000534, 0.2058196, 1.1812944, 0, 0, 0, 0, -1, 0, 0, 0
5035400, -0.32650757, 0.23538208, 0.05795288, 5035400, 0.18687928, 0.26126957, 1.376442, 0, 0, 0, 0, -1, 0, 0, 0
5035401, -0.2886505, 0.21582031, 0.04574585, 5035401, -0.17790946, 0.32300377, 1.3971634, 0, 0, 0, 0, -1, 0, 0, 0
5035400, -0.26176453, 0.1620636, 0.05307007, 5035400, -0.44545838, 0.30002928, 1.2841692, 0, 0, 0, 0, -1, 0, 0, 0
4943848, -0.22879028, 0.111968994, 0.07505798, 4943848, -0.5452826, 0.20267534, 1.0199604, 0, 0, 0, 0, -1, 0, 0, 0
4943847, -0.2019043, 0.07531738, 0.103149414, 4943847, -0.4880076, 0.109656334, 0.77617073, 0, 0, 0, 0, -1, 0, 0, 0
4943848, -0.19090271, 0.07531738, 0.123916626, 4943848, -0.3164469, 0.043093204, 0.5051203, 0, 0, 0, 0, -1, 0, 0, 0
4943848, -0.19090271, 0.06677246, 0.12635803, 4943848, -0.057839274, 0.004284382, 0.3323431, 0, 0, 0, 0, -1, 0, 0, 0
4943847, -0.19946289, 0.06311035, 0.12269592, 4943847, 0.14104497, -0.055802345, 0.18077469, 0, 0, 0, 0, -1, 0, 0, 0
4943848, -0.21899414, 0.053329468, 0.10070801, 4943848, 0.3109654, -0.014204025, 0.10077858, 0, 0, 0, 0, -1, 0, 0, 0
4943848, -0.22267151, 0.06187439, 0.07749939, 4943848, 0.3611517, -0.032961845, 0.13707352, 0, 0, 0, 0, -1, 0, 0, 0
4943847, -0.2177887, 0.09364319, 0.0640564, 4943847, 0.36190578, -0.07838774, 0.12755108, 0, 0, 0, 0, -1, 0, 0, 0
4913330, -0.22143555, 0.12663269, 0.043289185, 4913330, 0.20179632, -0.084546566, 0.26263142, 0, 0, 0, 0, -1, 0, 0, 0
4974365, -0.22879028, 0.16572571, 0.032302856, 4974365, 0.28598177, 0.0010080338, 0.27435207, 0, 0, 0, 0, -1, 0, 0, 0
4943848, -0.23731995, 0.19869995, 0.013977051, 4943848, 0.54581964, 0.321393, 0.22372627, 0, 0, 0, 0, -1, 0, 0, 0
4943848, -0.24343872, 0.23046875, -0.01411438, 4943848, 0.57685626, 0.43318748, 0.113554955, 0, 0, 0, 0, -1, 0, 0, 0
4943847, -0.24343872, 0.23046875, -0.040985107, 4943847, 0.25105426, 0.2682624, -0.06495571, 0, 0, 0, 0, -1, 0, 0, 0
4943848, -0.23976135, 0.19869995, -0.040985107, 4943848, -0.16770008, 0.039521694, -0.22165966, 0, 0, 0, 0, -1, 0, 0, 0
4943848, -0.22267151, 0.10586548, -0.059310913, 4943848, -0.45028475, -0.17625237, -0.29892826, 0, 0, 0, 0, -1, 0, 0, 0
4943847, -0.19578552, 0.005706787, -0.06175232, 4943847, -0.5589979, -0.30331373, -0.25872612, 0, 0, 0, 0, -1, 0, 0, 0
4943848, -0.18722534, -0.0712738, -0.04586792, 4943848, -0.5225574, -0.3406868, -0.22841549, 0, 0, 0, -1, -1, 59860012193829, 0, 0
4913330, -0.1542511, -0.103027344, -0.01777649, 4913330, -0.4164985, -0.28081608, -0.002407074, 0, 0, 0, -1, -1, 0, 0, 0
4974365, -0.13348389, -0.10424805, 0.0029907227, 4974365, -0.27513865, -0.15676212, 0.2524824, 0, 0, 0, -1, -1, 0, 0, 0
4943848, -0.093170166, -0.08226013, 0.00541687, 4943848, -0.066378236, 0.0014195442, 0.47929955, 0, 0, 0, -1, -1, 0, 0, 0
4943848, -0.06750488, -0.0382843, 0.009094238, 4943848, 0.046795815, 0.11943483, 0.66988945, 0, 0, 0, -1, -1, 0, 0, 0
4943847, -0.04185486, 0.01789856, 0.0115356445, 4943847, 0.10826185, 0.21666384, 0.7883501, 0, 0, 0, -1, -1, 0, 0, 0
7049561, 0.013122559, 0.088760376, 0.020065308, 7049561, -0.015312791, 0.21532297, 0.6821327, 0, 0, 0, -1, -1, 0, 0, 0
5035401, 0.02532959, 0.10342407, 0.020065308, 7049561, -0.015312791, 0.21532297, 0.6821327, 0, 0, 0, -1, -1, 0, 0, 0
5035401, 0.02532959, 0.10342407, 0.020065308, 5035401, -0.11654645, 0.06793499, 0.31696892, 0, 0, 0, -1, -1, 0, 0, 0
5035400, 0.04975891, 0.09976196, 0.02130127, 5035400, -0.08176157, 0.036246777, 0.22847176, 0, 0, 0, -1, -1, 0, 0, 0
