GYRO_DIFF, GYRO_X, GYRO_Y, GYRO_Z, ACC_DIFF, ACC_X, ACC_Y, ACC_Z, TOUCH_DOWN, TOUCH_X, TOUCH_Y 
420985853291568, 0.06843567, -0.039779663, -0.084732056, 420985853291568, -0.50041777, -0.47037935, -0.59740496, 0, 0, 0
5004883, 0.06477356, -0.052001953, -0.072525024, 5004883, -0.5344821, -0.4859724, -0.604352, 0, 0, 0
5065918, 0.07698059, -0.06298828, -0.05419922, 5065918, -0.50848603, -0.5100794, -0.5655298, 0, 0, 0
5004883, 0.086761475, -0.069107056, -0.041992188, 5004883, -0.42983294, -0.5514283, -0.6458888, 0, 0, 0
5065918, 0.083099365, -0.060546875, -0.04319763, 5065918, -0.25874394, -0.54284334, -0.6956606, 0, 0, 0
4943848, 0.065979004, -0.049545288, -0.033432007, 4943848, -0.083507895, -0.51716757, -0.7130475, 0, 0, 0
4943847, 0.042770386, -0.037338257, -0.033432007, 4943847, 0.0263592, -0.45393324, -0.7536583, 0, 0, 0
4943848, 0.025680542, -0.031219482, -0.044433594, 4943848, 0.059497207, -0.4127245, -0.76123476, 0, 0, 0
4974365, 0.0073547363, -0.016571045, -0.045639038, 4974365, 0.07074168, -0.36352873, -0.75519896, 0, 0, 0
4913330, -0.020751953, 0.005432129, -0.063964844, 4913330, -0.023927033, -0.27246857, -0.7149434, 0, 0, 0
4913330, -0.040283203, 0.015197754, -0.072525024, 4913330, -0.13230133, -0.22131014, -0.65215826, 0, 0, 0
4974365, -0.040283203, 0.010314941, -0.07008362, 4974365, -0.25351036, -0.25540257, -0.52623844, 0, 0, 0
4913331, -0.062286377, 0.010314941, -0.07130432, 4913331, -0.33057418, -0.2611699, -0.39324236, 0, 0, 0
4974365, -0.062286377, -0.023895264, -0.051757813, 4974365, -0.4079043, -0.30458164, -0.31130362, 0, 0, 0
4913330, -0.07815552, -0.059326172, -0.051757813, 4913330, -0.4254233, -0.28265762, -0.18047714, 0, 0, 0
4974365, -0.061050415, -0.07154846, -0.026107788, 4974365, -0.41844317, -0.3238535, -0.08252382, 0, 0, 0
4913330, -0.062286377, -0.059326172, -0.0065460205, 4913330, -0.3707138, -0.33775806, 0.011255264, 0, 0, 0
4974365, -0.056167603, -0.059326172, 0.02520752, 4974365, -0.22657353, -0.21189022, 0.03508711, 0, 0, 0
4913331, -0.06838989, -0.052001953, 0.034973145, 4913331, -0.07758862, -0.07858229, 0.22481155, 0, 0, 0
4974365, -0.07449341, -0.03366089, 0.049621582, 4974365, 0.14396861, 0.054024696, 0.4867277, 0, 0, 0
4913330, -0.050048828, -0.009246826, 0.06185913, 4913330, 0.22009319, 0.14963579, 0.57599163, 0, 0, 0
4974365, -0.034179688, 0.018859863, 0.059402466, 4974365, 0.20769948, 0.2045126, 0.48106527, 0, 0, 0
4913330, -0.006072998, 0.018859863, 0.04473877, 4913330, 0.30117774, 0.20888186, 0.25437593, 0, 0, 0
4974365, 0.0158844, 0.022506714, 0.03253174, 4974365, 0.4572642, 0.24713564, 0.05588007, 0, 0, 0
4974366, 0.028121948, 0.026184082, 0.005645752, 4974366, 0.5452167, 0.23814249, -0.13018322, 0, 0, 0
4943847, 0.025680542, 0.023742676, -0.01876831, 4943847, 0.48753902, 0.108475685, -0.16331339, 0, 0, 0
4943848, 0.026885986, 0.026184082, -0.055419922, 4943848, 0.36168268, 0.03900051, -0.20340443, 0, 0, 0
7019043, 0.023239136, 0.0029907227, -0.07740784, 7019043, -0.1435717, -0.13646317, -0.27887726, 0, 0, 0
5035400, 0.02079773, -0.005569458, -0.076187134, 5035400, -0.34475267, -0.15462637, -0.3106737, 0, 0, 0
5035401, 0.0012359619, -0.023895264, -0.05908203, 5035401, -0.48682815, -0.21537304, -0.34792614, 0, 0, 0
5004883, -0.046401978, -0.04710388, -0.005340576, 5035401, -0.48682815, -0.21537304, -0.34792614, 0, 0, 0
4974365, -0.05128479, -0.030014038, 0.016647339, 5035400, -0.4859174, -0.23778534, -0.26411104, 0, 0, 0
4943848, -0.061050415, -0.015335083, 0.02885437, 5004883, -0.4497662, -0.22374153, -0.096339226, 0, 0, 0
4943848, -0.061050415, -0.015335083, 0.02885437, 4943848, -0.13589254, -0.11460972, 0.024562836, 0, 0, 0
4943847, -0.05860901, 0.0090789795, 0.04109192, 4943847, -0.143662, -0.014363289, 0.03558588, 0, 0, 0
4943848, -0.047607422, 0.05795288, 0.05696106, 4943847, -0.143662, -0.014363289, 0.03558588, 0, 0, 0
4913330, -0.057388306, 0.038391113, 0.052078247, 4943848, -0.073173106, 0.04807043, -0.030826092, 0, 0, 0
4913330, -0.057388306, 0.038391113, 0.052078247, 4913330, 0.120061964, 0.102613926, -0.17643785, 0, 0, 0
4974365, -0.06838989, 0.011520386, 0.034973145, 4974365, 0.0704523, 0.08148813, -0.2614131, 0, 0, 0
4943847, -0.057388306, -0.04222107, 0.02885437, 4974365, 0.0704523, 0.08148813, -0.2614131, 0, 0, 0
4943848, -0.053726196, -0.088653564, 0.020324707, 4943848, 0.009859711, 0.07532406, -0.23240995, 0, 0, 0
4943848, -0.053726196, -0.088653564, 0.020324707, 4943848, 0.1548016, -0.011431694, -0.41871738, 0, 0, 0
4943847, -0.025634766, -0.124069214, -4.5776367E-4, 4943848, 0.1548016, -0.011431694, -0.41871738, 0, 0, 0
4943847, -0.025634766, -0.124069214, -4.5776367E-4, 4943847, 0.023115098, -0.0645113, -0.26482773, 0, 0, 0
4943848, -0.008514404, -0.14483643, 0.005645752, 4943848, 0.16602379, -0.059096813, -0.20213652, 0, 0, 0
4943848, -0.0048675537, -0.15707397, -4.5776367E-4, 4943848, 0.21635541, -0.18337345, -0.2095151, 0, 0, 0
4943847, -0.019515991, -0.15583801, 0.008087158, 4943847, 0.19627178, -0.21171188, -0.1876297, 0, 0, 0
4943848, -0.00730896, -0.1326294, 0.020324707, 4943848, 0.102388024, -0.20951128, -0.10041618, 0, 0, 0
4943848, 0.014678955, -0.103302, 0.011764526, 4943848, 0.07949233, -0.19068241, 0.019196033, 0, 0, 0
4913330, 0.026885986, -0.008010864, 0.008087158, 4943848, 0.07949233, -0.19068241, 0.019196033, 0, 0, 0
4974366, 0.0317688, 0.039627075, -0.0041046143, 4943847, 0.10209033, -0.18726873, 0.08364868, 0, 0, 0
4974366, 0.0317688, 0.039627075, -0.0041046143, 4974366, 0.25805053, -0.010186195, 0.04458046, 0, 0, 0
4913330, 0.0317688, 0.039627075, -0.010223389, 4913330, 0.058495373, 0.00894928, 0.008410454, 0, 0, 0
5157470, 0.028121948, 0.0652771, -0.0077819824, 5157470, -0.10772255, 0.072301865, -0.039041996, 0, 0, 0
6866455, 0.029327393, 0.027389526, -0.012664795, 6866455, -0.22322085, 0.07745886, -0.16649342, 0, 0, 0
5035401, 0.03300476, 0.0017547607, -0.011428833, 5035401, -0.31753138, 0.0769124, -0.3336916, 0, 0, 0
5035400, 0.011001587, -0.043441772, -4.5776367E-4, 5035400, -0.32363293, 0.05732441, -0.31233978, 0, 0, 0
5035401, -0.008514404, -0.08621216, -0.00289917, 5035401, -0.14726835, 0.123708725, -0.40685463, 0, 0, 0
5035400, -0.03540039, -0.09841919, 7.6293945E-4, 5035400, -0.13386714, 0.10618591, -0.45783234, 0, 0, 0
4943848, -0.06838989, -0.09963989, 0.008087158, 4943848, -0.08329275, 0.08471203, -0.52276754, 0, 0, 0
4943847, -0.09526062, -0.09475708, 0.015411377, 4943847, -0.06570408, 0.06665945, -0.485641, 0, 0, 0
4913330, -0.105041504, -0.080093384, 0.014205933, 4913330, 0.010887891, 0.010285854, -0.39620972, 0, 0, 0
4974366, -0.101364136, -0.080093384, 0.026412964, 4974366, 0.08046016, 0.007739544, -0.31742907, 0, 0, 0
4913330, -0.101364136, -0.067871094, 0.026412964, 4913330, 0.10407096, -0.069618225, -0.27406836, 0, 0, 0
4974365, -0.1026001, -0.067871094, 0.030090332, 4974365, 0.124254555, -0.09401703, -0.30009508, 0, 0, 0
4943848, -0.1026001, -0.07521057, 0.030090332, 4943848, 0.14556253, -0.12266302, -0.19248486, 0, 0, 0
4943847, -0.09037781, -0.08375549, 0.02520752, 4943847, 0.11980018, -0.03465414, 0.042127132, 0, 0, 0
4974365, -0.06472778, -0.07154846, 0.015411377, 4974365, 0.10258326, 0.043619156, 0.18443394, 0, 0, 0
4943848, -0.056167603, -0.06666565, 0.020324707, 4943848, 0.051183343, 0.0033164024, 0.25169468, 0, 0, 0
4913330, -0.032958984, -0.06298828, 0.017868042, 4913330, 0.08771148, -0.066124916, 0.21321392, 0, 0, 0
4943848, 0.0073547363, -0.06666565, 0.008087158, 4943848, 0.08454329, -0.12157488, 0.25715256, 0, 0, 0
4974365, 0.025680542, -0.06542969, 0.00932312, 4974365, 0.019856244, -0.1517086, 0.21578884, 0, 0, 0
4943848, 0.039108276, -0.061767578, 0.010528564, 4943848, 0.025333107, -0.15769672, 0.18264103, 0, 0, 0
4943847, 0.054992676, -0.05444336, 0.006881714, 4943847, 0.03677687, -0.16060925, 0.11904192, 0, 0, 0
4943848, 0.05987549, -0.03855896, -0.001663208, 4943848, 0.06054303, -0.1262269, -0.0511837, 0, 0, 0
4943848, 0.058654785, -0.028778076, -0.010223389, 4943848, 0.039889187, -0.11896658, -0.11043024, 0, 0, 0
4943847, 0.053771973, -0.020233154, -0.017547607, 4943847, 0.06763488, -0.08832216, -0.29764032, 0, 0, 0
4974366, 0.044006348, -0.0043640137, -0.012664795, 4974366, 0.064637184, -0.1526475, -0.33733892, 0, 0, 0
4913330, 0.042770386, -0.0043640137, -0.016311646, 4913330, 0.122148275, -0.15032244, -0.4902358, 0, 0, 0
4974365, 0.03666687, -0.008010864, -0.0309906, 4974365, 0.12833318, -0.16711283, -0.65809155, 0, 0, 0
4913330, -0.0011901855, -0.015335083, -0.041992188, 4913330, 0.0815607, -0.14397097, -0.70572186, 0, 0, 0
7019043, -0.015838623, -0.017791748, -0.055419922, 7019043, -0.017094284, -0.07944393, -0.64538956, 0, 0, 0
5035400, -0.047607422, -0.030014038, -0.057861328, 5035400, -0.027678281, -0.04421425, -0.483459, 0, 0, 0
5065918, -0.06593323, -0.030014038, -0.056640625, 5065918, -0.07072726, -0.061291218, -0.29572916, 0, 0, 0
5035400, -0.069610596, -0.048339844, -0.045639038, 5065918, -0.07072726, -0.061291218, -0.29572916, 0, 0, 0
4943848, -0.07571411, -0.053222656, -0.029754639, 5035401, -0.14613205, -0.016079426, -0.18707275, 0, 0, 0
4943848, -0.07571411, -0.053222656, -0.029754639, 4943848, -0.060000688, -0.032361984, 0.06573439, 0, 0, 0
4913330, -0.061050415, -0.059326172, -0.028549194, 4913330, 0.013692051, -0.055855274, 0.23169851, 0, 0, 0
4943848, -0.04272461, -0.04710388, -0.011428833, 4943848, 0.09842971, 0.0019659996, 0.37617636, 0, 0, 0
4974365, -0.04396057, -0.02267456, 7.6293945E-4, 4974365, 0.059977382, 0.038568497, 0.49224234, 0, 0, 0
4943847, -0.018295288, 0.0017547607, 0.005645752, 4943847, 0.010004759, 0.026865005, 0.6085515, 0, 0, 0
4943848, 0.03666687, 0.071380615, 0.03375244, 4943847, 0.010004759, 0.026865005, 0.6085515, 0, 0, 0
4943847, 0.06965637, 0.071380615, 0.026412964, 4943848, -0.04166943, 0.03344965, 0.586843, 0, 0, 0
4943847, 0.06965637, 0.071380615, 0.026412964, 4943847, -0.10213131, -0.00799036, 0.26601982, 0, 0, 0
4943848, 0.11729431, 0.017623901, 0.02885437, 4943847, -0.10213131, -0.00799036, 0.26601982, 0, 0, 0
4943847, 0.12463379, -0.02633667, 0.015411377, 4943848, -0.17679632, -0.03727007, 0.097578526, 0, 0, 0
4943847, 0.12463379, -0.02633667, 0.015411377, 4943847, -0.15831372, -0.031885624, -0.45608377, 0, 0, 0
4943848, 0.08920288, -0.08621216, 0.023971558, 4943847, -0.15831372, -0.031885624, -0.45608377, 0, 0, 0
4943848, 0.08920288, -0.08621216, 0.023971558, 4943848, -0.14892504, -0.008063793, -0.7838378, 0, 0, 0
4913330, 0.02079773, -0.08621216, 0.031295776, 4943848, -0.14892504, -0.008063793, -0.7838378, 0, 0, 0
4974366, -0.024398804, -0.072769165, 0.02885437, 4943847, -0.11063865, -0.058168888, -0.8307414, 0, 0, 0
4974366, -0.024398804, -0.072769165, 0.02885437, 4974366, -0.0968799, -0.18378782, -0.676373, 0, 0, 0
4943847, -0.062286377, -0.052001953, 0.022766113, 4943847, -0.14458254, -0.1870327, -0.5624795, 0, 0, 0
4943848, -0.08181763, -0.052001953, 0.026412964, 4943848, -0.07617259, -0.18300056, -0.40775204, 0, 0, 0
4943848, -0.08181763, -0.056884766, 0.020324707, 4943848, -0.044454306, -0.19127846, -0.18571997, 0, 0, 0
4943848, -0.113586426, -0.052001953, 0.023971558, 4943848, -0.044454306, -0.19127846, -0.18571997, 0, 0, 0
4943848, -0.1209259, -0.05078125, 0.03253174, 4943847, -0.026394248, -0.10589123, -0.109315395, 0, 0, 0
4943848, -0.1209259, -0.05078125, 0.03253174, 4943848, -0.035918444, -0.049533367, 0.11213875, 0, 0, 0
7019043, -0.09648132, -0.023895264, 0.043533325, 7019043, 0.054142416, -0.022638798, 0.32632685, 0, 0, 0
5065917, -0.07571411, -0.014129639, 0.04473877, 5065917, 0.19720593, -0.0069942474, 0.3675189, 0, 0, 0
5035401, -0.052505493, 0.0066375732, 0.043533325, 5035401, 0.23991686, 0.013999462, 0.49321795, 0, 0, 0
5035400, -0.021957397, 0.02130127, 0.042297363, 5035400, 0.25855935, -0.038397312, 0.47861004, 0, 0, 0
5035401, 0.011001587, 0.038391113, 0.03375244, 5035401, 0.3520768, -0.024868488, 0.44775343, 0, 0, 0
4943847, 0.034225464, 0.060394287, 0.023971558, 4943847, 0.33637902, 0.01285696, 0.33020306, 0, 0, 0
4943848, 0.05621338, 0.066482544, 0.020324707, 4943848, 0.23788056, -0.018983841, 0.15827894, 0, 0, 0
4943848, 0.065979004, 0.05795288, 0.02520752, 4943848, 0.18445039, -0.060905933, 0.00242424, 0, 0, 0
4943847, 0.05987549, 0.05795288, 0.022766113, 4943847, 0.14200425, -0.050740242, -0.19619656, 0, 0, 0
4943848, 0.05987549, 0.039627075, 0.022766113, 4943848, 0.10818091, -0.09642458, -0.48614836, 0, 0, 0
4913330, 0.058654785, 0.02130127, 0.016647339, 4913330, 0.07379165, -0.098207474, -0.5766053, 0, 0, 0
4974365, 0.019561768, 0.012756348, 0.020324707, 4974365, 0.1606001, -0.03146839, -0.66669273, 0, 0, 0
4943848, -0.019515991, 0.0090789795, 0.011764526, 4943848, 0.14835045, -0.073105335, -0.58364105, 0, 0, 0
4943848, -0.047607422, 0.005432129, -4.5776367E-4, 4943848, 0.15281683, -0.06598425, -0.48376226, 0, 0, 0
4943847, -0.06838989, 0.017623901, 0.0032043457, 4943847, 0.15974185, -0.09528875, -0.3139186, 0, 0, 0
4943848, -0.073272705, 0.02130127, -0.011428833, 4943848, 0.16878968, -0.089873314, -0.15918446, 0, 0, 0
4878914, -0.08425903, 0.027389526, -0.01876831, 4878914, 0.14438966, -0.20742846, -0.12957287, 0, 0, 0
4943847, -0.089157104, 0.034729004, -0.0041046143, 4943847, 0.01070416, -0.25341463, 0.038994312, 0, 0, 0
4943848, -0.09037781, 0.038391113, -0.001663208, 4943848, 0.021157175, -0.16336441, 0.117845535, 0, 0, 0
4943848, -0.06472778, 0.051834106, -0.00289917, 4943848, 0.031738102, -0.17526817, 0.18364811, 0, 0, 0
4943847, -0.059829712, 0.06404114, -0.005340576, 4943847, 0.054839283, -0.121110916, 0.2538023, 0, 0, 0
4943848, -0.048843384, 0.066482544, -0.0065460205, 4943848, 0.09364769, -0.099453926, 0.23439598, 0, 0, 0
4943847, -0.030517578, 0.071380615, -0.001663208, 4943847, 0.14867502, -0.10860968, 0.20354366, 0, 0, 0
4943848, -0.019515991, 0.087265015, -0.0065460205, 4943848, 0.16722307, -0.08638668, 0.23066807, 0, 0, 0
4943848, -0.018295288, 0.09703064, -0.0041046143, 4943848, 0.22597784, -0.057529926, 0.19471502, 0, 0, 0
4913330, 0.011001587, 0.10925293, -0.008987427, 4913330, 0.24441677, -0.032375336, 0.23393774, 0, 0, 0
4974365, 0.0036773682, 0.10192871, -0.019989014, 4974365, 0.13623372, -0.060812473, 0.15398312, 0, 0, 0
7049561, 0.013442993, 0.090927124, -0.027313232, 7049561, -0.15548605, -0.043673515, 0.29666805, 0, 0, 0
5004882, 0.026885986, 0.08604431, -0.0309906, 5004882, -0.079505116, 0.021197796, 0.13966656, 0, 0, 0
5065918, 0.03666687, 0.05671692, -0.028549194, 5004882, -0.079505116, 0.021197796, 0.13966656, 0, 0, 0
5065918, 0.03666687, 0.05671692, -0.028549194, 5065918, -0.0032357574, 0.07899189, -0.12554646, 0, 0, 0
4943848, 0.042770386, 0.0029907227, -0.04319763, 5065918, -0.0032357574, 0.07899189, -0.12554646, 0, 0, 0
4943848, 0.042770386, 0.0029907227, -0.04319763, 4943848, -0.059474975, 0.014641762, -0.20512438, 0, 0, 0
4943848, 0.026885986, -0.012893677, -0.049316406, 4943848, -0.080546975, -0.02921009, -0.2340002, 0, 0, 0
4943847, 0.018341064, -0.019012451, -0.05419922, 4943847, -0.10478926, -0.15087366, -0.2448988, 0, 0, 0
4943848, 0.0073547363, -0.028778076, -0.045639038, 4943848, -0.11878151, -0.119336605, -0.19880104, 0, 0, 0
4943847, -0.015838623, -0.037338257, -0.039535522, 4943847, -0.09590185, -0.11542606, -0.17291832, 0, 0, 0
4943848, -0.021957397, -0.0104522705, -0.033432007, 4943847, -0.09590185, -0.11542606, -0.17291832, 0, 0, 0
4943847, -0.028076172, 0.004196167, -0.027313232, 4943848, -0.053880095, -0.10555267, -0.08534098, 0, 0, 0
4943847, -0.028076172, 0.004196167, -0.027313232, 4943847, -0.09284526, -0.060586452, 0.07104921, 0, 0, 0
4943848, -0.024398804, 0.023742676, -0.013870239, 4943848, -0.088397264, -0.05574417, 0.1095705, 0, 0, 0
4943847, -0.02319336, 0.054275513, 7.6293945E-4, 4943848, -0.088397264, -0.05574417, 0.1095705, 0, 0, 0
4943847, -0.02319336, 0.054275513, 7.6293945E-4, 4943847, 0.080010265, -0.038104057, 0.01374054, 0, 0, 0
4943848, -0.024398804, 0.050613403, 7.6293945E-4, 4943848, 0.11093786, 0.011977196, -0.0072340965, 0, 0, 0
4913330, -0.034179688, 0.060394287, 0.008087158, 4913330, 0.14540431, 0.04920578, 0.06282616, 0, 0, 0
4974365, -0.041519165, 0.07626343, 0.006881714, 4974365, 0.13047165, 0.07682562, 0.12418842, 0, 0, 0
5218506, -0.032958984, 0.08848572, 0.0032043457, 5218506, 0.16206408, 0.07344341, 0.13181782, 0, 0, 0
4669190, -0.020751953, 0.08848572, -0.0077819824, 4669190, 0.16038167, 0.06009054, 0.055756092, 0, 0, 0
4943847, -0.029281616, 0.06893921, -0.011428833, 4669190, 0.16038167, 0.06009054, 0.055756092, 0, 0, 0
4943848, -0.014633179, 0.050613403, -0.023666382, 4913330, 0.079399616, 0.004266262, 0.018118382, 0, 0, 0
4974365, -0.008514404, 0.020065308, -0.027313232, 4943847, -0.0061484873, -0.024241924, -0.097821236, 0, 0, 0
4974365, -0.008514404, 0.020065308, -0.027313232, 4974365, -0.19604304, -0.12330532, -0.1432867, 0, 0, 0
4943848, -0.017074585, -0.015335083, -0.016311646, 4974365, -0.19604304, -0.12330532, -0.1432867, 0, 0, 0
4943848, -0.017074585, -0.015335083, -0.016311646, 4943848, -0.20693511, -0.18256855, -0.049078465, 0, 0, 0
7049560, -0.0024261475, -0.03855896, -0.008987427, 7049560, -0.21605596, -0.18302631, -0.03582096, 0, 0, 0
5065918, 0.0073547363, -0.06542969, -0.00289917, 5065918, -0.17450187, -0.19727564, -0.03988886, 0, 0, 0
5004883, 0.011001587, -0.061767578, -0.008987427, 5004883, -0.14250538, -0.19833183, -0.068145275, 0, 0, 0
5035400, 0.009796143, -0.056884766, -0.011428833, 5035400, -0.13473469, -0.18730307, -8.010864E-5, 0, 0, 0
5035401, 0.0061187744, -0.03855896, -0.0041046143, 5035401, -0.074040055, -0.1568203, -0.022253036, 0, 0, 0
4943847, 0.012237549, -0.028778076, -0.0065460205, 4943847, -0.03518039, -0.14875889, -0.045903683, 0, 0, 0
4974366, 0.012237549, -0.028778076, -0.005340576, 4974366, -0.034030348, -0.10403919, -0.05488205, 0, 0, 0
4913330, 0.0036773682, -0.02633667, -0.005340576, 4913330, 0.008295596, -0.109547615, 0.015128136, 0, 0, 0
4974365, 0.02444458, -0.019012451, -0.0041046143, 4974365, 0.04089141, -0.07585335, -0.0039014816, 0, 0, 0
4913330, 0.03666687, -0.020233154, -0.0065460205, 4913330, 0.058713973, -0.03816986, -0.04977846, 0, 0, 0
4974365, 0.022003174, -0.023895264, -0.001663208, 4974365, 0.068769544, -0.04692459, -0.040770054, 0, 0, 0
4882813, 0.023239136, -0.031219482, -0.001663208, 4882813, 0.044037968, -0.030866146, -0.005373478, 0, 0, 0
4974365, 0.030563354, -0.008010864, 0.0019989014, 4974365, 0.1299938, -0.01143074, -0.091513634, 0, 0, 0
4943848, 0.026885986, 0.015197754, 0.011764526, 4943848, 0.19907948, 0.025537968, -0.10404253, 0, 0, 0
4974365, 0.014678955, 0.038391113, 0.021530151, 4974365, 0.20655012, 0.061389923, -0.23780632, 0, 0, 0
4913330, 0.0061187744, 0.046951294, 0.02520752, 4913330, 0.16400826, 0.075217724, -0.30016184, 0, 0, 0
4943848, -0.009750366, 0.046951294, 0.017868042, 4943848, 0.10359776, 0.09287691, -0.3080845, 0, 0, 0
4943847, -0.012191772, 0.0493927, 0.0044403076, 4943847, -0.034104615, 0.09937382, -0.31874657, 0, 0, 0
4943848, -0.030517578, 0.035949707, 0.0044403076, 4943848, -0.09621057, 0.049441814, -0.33784914, 0, 0, 0
4943848, -0.031723022, 0.018859863, -4.5776367E-4, 4943848, -0.117862076, 0.009813786, -0.27062798, 0, 0, 0
4943847, -0.02684021, -0.0043640137, 0.0019989014, 4943847, -0.117865264, -0.026775837, -0.2847662, 0, 0, 0
4943848, -0.030517578, -0.030014038, -4.5776367E-4, 4943848, -0.13948274, -0.11123037, -0.23577595, 0, 0, 0
4943848, -0.050048828, -0.049545288, 0.005645752, 4943848, -0.124602795, -0.18084717, -0.17137146, 0, 0, 0
4943847, -0.037841797, -0.05810547, 0.0032043457, 4943847, -0.13913488, -0.18928099, -0.030500412, 0, 0, 0
4943848, -0.04272461, -0.060546875, -0.001663208, 4943848, -0.1129038, -0.20372486, 0.0036349297, 0, 0, 0
4943848, -0.02684021, -0.052001953, -0.008987427, 4943848, -0.06988001, -0.17858028, 0.028233528, 0, 0, 0
4943847, -0.031723022, -0.048339844, -0.00289917, 4943847, -0.025761098, -0.14947462, 0.029444218, 0, 0, 0
5004883, -0.015838623, -0.012893677, -0.021224976, 4943847, -0.025761098, -0.14947462, 0.029444218, 0, 0, 0
5004883, -0.015838623, -0.012893677, -0.021224976, 5004883, 0.072102696, -0.0750308, -0.036710262, 0, 0, 0
4638672, -0.024398804, 0.018859863, -0.021224976, 5004883, 0.072102696, -0.0750308, -0.036710262, 0, 0, 0
5035400, -0.021957397, 0.013961792, -0.008987427, 5432129, 0.06519413, -0.021044254, 0.15120363, 0, 0, 0
5035400, -0.021957397, 0.013961792, -0.008987427, 5035400, 0.052070796, 0.037549496, 0.16004944, 0, 0, 0
4943848, 0.02079773, 0.0493927, 0.010528564, 5035400, 0.052070796, 0.037549496, 0.16004944, 0, 0, 0
4943847, 0.028121948, 0.05671692, 0.014205933, 4943848, 0.08159804, 0.052559376, 0.1536169, 0, 0, 0
4943847, 0.028121948, 0.05671692, 0.014205933, 4943847, 0.12318596, 0.08302498, -0.039387226, 0, 0, 0
4913330, 0.0317688, 0.066482544, 0.012969971, 4943847, 0.12318596, 0.08302498, -0.039387226, 0, 0, 0
4974365, 0.013442993, 0.075042725, 0.015411377, 4943848, 0.12155858, 0.070286274, -0.043324947, 0, 0, 0
4913330, -0.0011901855, 0.06283569, 0.019088745, 4913330, 0.11869785, 0.01706171, -0.14059353, 0, 0, 0
4913330, -0.0011901855, 0.06283569, 0.019088745, 4913330, -0.024551421, 0.011972904, -0.25062513, 0, 0, 0
4943848, 0.0073547363, 0.04083252, 0.019088745, 4943848, -0.14111719, 0.051980972, -0.26093388, 0, 0, 0
4974365, -0.013397217, 0.0335083, 0.026412964, 4974365, -0.2074045, 0.012417316, -0.2109499, 0, 0, 0
4943848, -0.029281616, 0.029830933, 0.03253174, 4974365, -0.2074045, 0.012417316, -0.2109499, 0, 0, 0
4943847, -0.03540039, 0.026184082, 0.03375244, 4943848, -0.14615059, -0.0049157143, -0.22785568, 0, 0, 0
4974365, -0.032958984, 0.013961792, 0.02885437, 4943848, -0.030121505, -0.06917, -0.094034195, 0, 0, 0
4913330, -0.032958984, 0.013961792, 0.02520752, 4943847, 0.05467847, -0.040447235, -0.010492325, 0, 0, 0
4974366, -0.029281616, 0.017623901, 0.02520752, 4974365, 0.088272005, -0.01567316, 0.0125665665, 0, 0, 0
4913330, -0.03540039, 0.020065308, 0.016647339, 4913330, 0.10379133, 0.04154682, -0.03658533, 0, 0, 0
4943847, -0.036621094, 0.016403198, 0.012969971, 4974366, 0.011559218, 0.08117533, -0.14745569, 0, 0, 0
4943847, -0.036621094, 0.016403198, 0.012969971, 4943847, 0.044869035, 0.0721488, -0.14037323, 0, 0, 0
4943848, -0.028076172, -0.0104522705, 0.006881714, 4943848, -0.023979783, 0.023385048, -0.069293976, 0, 0, 0
4913330, -0.048843384, -0.05078125, 0.006881714, 4943848, -0.023979783, 0.023385048, -0.069293976, 0, 0, 0
4943848, -0.031723022, -0.05444336, 0.006881714, 4974365, -0.07031369, -0.084420204, -0.04074669, 0, 0, 0
4943848, -0.031723022, -0.05444336, 0.006881714, 4943848, 0.07150847, -0.10804701, 0.04566717, 0, 0, 0
4943848, -0.03540039, -0.049545288, -4.5776367E-4, 4943848, 0.11679977, -0.05048275, 0.12151766, 0, 0, 0
7080078, -0.019515991, -0.017791748, -0.001663208, 7080078, 0.15725091, 0.0059919357, 0.15848207, 0, 0, 0
5004883, -0.009750366, -0.00680542, 0.0019989014, 5004883, 0.23950323, 0.031372547, 0.20654535, 0, 0, 0
5035400, -0.0036315918, 0.012756348, -0.0041046143, 5035400, 0.24660215, 0.08836317, 0.15954494, 0, 0, 0
5004883, -0.009750366, 0.012756348, -0.00289917, 5004883, 0.16626334, 0.12401581, 0.24587154, 0, 0, 0
5065918, -0.009750366, 0.0029907227, -4.5776367E-4, 5065918, 0.18636173, 0.09350443, 0.25529003, 0, 0, 0
4943848, 0.009796143, -0.017791748, -4.5776367E-4, 4943848, 0.14931142, 0.07145023, 0.19970465, 0, 0, 0
4943847, 0.02444458, -0.02633667, -0.008987427, 4943847, 0.052410334, 0.05479479, 0.121684074, 0, 0, 0
4943848, 0.029327393, -0.041000366, -0.013870239, 4943848, 0.06898892, -0.0024776459, -0.0044054985, 0, 0, 0
4913330, 0.0317688, -0.037338257, -0.012664795, 4913330, 0.083592355, 0.004693508, -0.0988574, 0, 0, 0
4974365, 0.04156494, -0.032455444, -4.5776367E-4, 4974365, 0.076306075, -0.049563408, -0.15702868, 0, 0, 0
4943848, 0.0317688, -0.020233154, -0.008987427, 4943848, 0.03550586, -0.066185, -0.2404294, 0, 0, 0
4913330, 0.0061187744, -0.021453857, -0.02243042, 4913330, 0.015379101, -0.09701538, -0.30469465, 0, 0, 0
4974365, -0.017074585, -0.020233154, -0.011428833, 4974365, -0.04080054, -0.08127928, -0.28453636, 0, 0, 0
4913330, -0.021957397, -0.019012451, -0.00289917, 4913330, -0.051520348, -0.10528374, -0.20678568, 0, 0, 0
4974365, -0.02319336, -0.03489685, -0.0077819824, 4974365, -0.053053856, -0.095778465, -0.028627396, 0, 0, 0
4943848, -0.034179688, -0.027572632, -0.001663208, 4943848, -0.020311385, -0.1076355, -0.0014925003, 0, 0, 0
4913330, -0.037841797, -0.023895264, -0.0077819824, 4913330, 0.054326683, -0.1364603, 0.08172703, 0, 0, 0
4974365, -0.030517578, -0.019012451, -0.012664795, 4974365, 0.092999876, -0.076880455, 0.13842821, 0, 0, 0
4974366, -0.013397217, -0.021453857, -0.0077819824, 4974366, 0.118757814, -0.13329554, 0.14538717, 0, 0, 0
4913330, 0.009796143, -0.02633667, -0.0065460205, 4913330, 0.06519154, -0.0866704, 0.24543095, 0, 0, 0
4943847, 0.023239136, -0.011688232, -4.5776367E-4, 4943847, 0.026801765, -0.075615406, 0.21333504, 0, 0, 0
4943848, 0.0317688, -0.0031280518, -0.0041046143, 4943848, 0.028133273, -0.056830883, 0.20366621, 0, 0, 0
4974365, 0.03300476, -0.00680542, -0.0077819824, 4974365, 0.0010353327, -0.027658463, 0.14968967, 0, 0, 0
4913330, 0.04032898, -0.00680542, -0.012664795, 4913330, 0.07599005, -0.0052399635, 0.066709995, 0, 0, 0
4974366, 0.028121948, -0.008010864, -0.01876831, 4974366, 0.07836652, -0.02122736, -0.0072574615, 0, 0, 0
4913330, 0.039108276, 0.004196167, -0.017547607, 4913330, 0.051067203, 1.5258789E-5, -0.1633544, 0, 0, 0
4943847, 0.028121948, 0.0017547607, -0.011428833, 4943847, 0.021754473, -0.0505805, -0.20048714, 0, 0, 0
7019043, 0.014678955, -0.0031280518, -0.016311646, 7019043, -0.06831694, -0.08710623, -0.3195653, 0, 0, 0
5065918, -0.0011901855, -0.012893677, -0.013870239, 5065918, -0.07940623, -0.07607412, -0.2318325, 0, 0, 0
5065918, -0.014633179, -0.02633667, -0.00289917, 5065918, -0.07940623, -0.07607412, -0.2318325, 0, 0, 0
5035400, -0.028076172, -0.016571045, 7.6293945E-4, 5004883, -0.07573748, -0.10071421, -0.20686007, 0, 0, 0
5035400, -0.028076172, -0.016571045, 7.6293945E-4, 5035400, -0.047921628, -0.07198286, -0.11497402, 0, 0, 0
4943848, -0.028076172, -0.03489685, -0.0065460205, 5035400, -0.047921628, -0.07198286, -0.11497402, 0, 0, 0
4913330, -0.034179688, -0.030014038, -0.001663208, 4943848, 0.00565359, -0.06038809, -0.12377834, 0, 0, 0
4974365, -0.030517578, -0.017791748, -0.0065460205, 4943848, -0.01810804, -0.061745644, -0.017433643, 0, 0, 0
4974365, -0.030517578, -0.017791748, -0.0065460205, 4974365, 0.04657069, -0.041557312, 0.036501884, 0, 0, 0
4974365, -0.015838623, 0.015197754, -0.013870239, 4974365, 0.04657069, -0.041557312, 0.036501884, 0, 0, 0
4943848, 0.02444458, 0.012756348, -0.02243042, 4913330, 0.09256947, -0.015178204, 0.07762575, 0, 0, 0
4943848, 0.037887573, 0.018859863, -0.016311646, 4974365, 0.14963943, -0.075217724, 0.13643026, 0, 0, 0
4913330, 0.04156494, 0.02494812, -0.008987427, 4943848, 0.062069893, -0.06469011, 0.12125492, 0, 0, 0
4974365, 0.03666687, 0.027389526, -0.005340576, 4943848, -0.04597521, -0.06620216, 0.13235664, 0, 0, 0
4943848, 0.030563354, 0.015197754, -0.00289917, 4913330, -0.08716318, -0.049932003, 0.089912415, 0, 0, 0
4943848, 0.030563354, 0.015197754, -0.00289917, 4943848, -0.12523392, -0.09024191, -0.062249184, 0, 0, 0
4943848, 0.026885986, -0.0031280518, 0.005645752, 4943848, -0.12523392, -0.09024191, -0.062249184, 0, 0, 0
4943848, 0.017120361, -0.005569458, -4.5776367E-4, 4943847, -0.14737609, -0.07616711, -0.16949415, 0, 0, 0
4943848, 0.017120361, -0.005569458, -4.5776367E-4, 4943848, 0.0017962456, -0.06374407, -0.22135496, 0, 0, 0
4974365, -0.012191772, -0.017791748, 0.012969971, 4943848, 0.0017962456, -0.06374407, -0.22135496, 0, 0, 0
4974365, -0.012191772, -0.017791748, 0.012969971, 4974365, 0.15089801, -9.536743E-5, -0.10044098, 0, 0, 0
4943848, -0.032958984, -0.0043640137, 0.0044403076, 4943848, 0.18655235, -0.01770544, -0.09962988, 0, 0, 0
4943847, -0.02319336, 0.011520386, -4.5776367E-4, 4943847, 0.15800449, -0.02082014, -0.03623104, 0, 0, 0
4974365, -0.034179688, 0.004196167, -0.00289917, 4974365, 0.04565668, -0.034286022, -0.03229952, 0, 0, 0
4913331, -0.032958984, 0.0090789795, -0.008987427, 4913331, -0.0644761, -0.04215145, -0.016313076, 0, 0, 0
4943847, -0.034179688, -6.866455E-4, -0.0065460205, 4913331, -0.0644761, -0.04215145, -0.016313076, 0, 0, 0
4943847, -0.034179688, -6.866455E-4, -0.0065460205, 4943847, -0.09670612, -0.101781845, 0.03551054, 0, 0, 0
7049561, -0.017074585, -0.005569458, -0.00289917, 7049561, -0.094456494, -0.19013977, 0.043886185, 0, 0, 0
5065918, 0.0036773682, -0.00680542, 0.0032043457, 5065918, -0.07117912, -0.118593216, 0.042256832, 0, 0, 0
5035400, 0.014678955, 0.0017547607, 0.0032043457, 5035400, -0.052282512, -0.08561039, 0.07465649, 0, 0, 0
5035401, 0.012237549, 0.010314941, 0.006881714, 5035401, 0.010716915, -0.08981037, 0.013617516, 0, 0, 0
5035400, 0.02444458, 0.015197754, 7.6293945E-4, 5035400, 0.012165785, -0.034207344, 0.016712189, 0, 0, 0
4943848, 0.0317688, 0.027389526, 0.010528564, 4943848, 0.012850612, -0.023321152, 0.025151253, 0, 0, 0
4943847, 0.035446167, 0.038391113, 0.014205933, 4943847, 0.07228276, 0.02732706, -0.044008255, 0, 0, 0
4943848, 0.03300476, 0.04083252, 0.020324707, 4943848, 0.11088848, 0.02816391, -0.10221052, 0, 0, 0
4913330, 0.037887573, 0.02494812, 0.010528564, 4913330, 0.12889847, 0.070287704, -0.23307085, 0, 0, 0
4974365, 0.02444458, 0.0090789795, 0.015411377, 4974365, 0.1252302, 0.04036808, -0.23212719, 0, 0, 0
4882813, 1.5258789E-5, -0.016571045, 0.0019989014, 4882813, 0.10285619, 0.058713913, -0.23735237, 0, 0, 0
4974365, -0.017074585, -0.014129639, -0.0041046143, 4974365, 0.10937056, 0.049411297, -0.22971582, 0, 0, 0
4943848, -0.0390625, -6.866455E-4, -0.0065460205, 4943848, 0.1470438, 0.057641983, -0.2680254, 0, 0, 0
4943847, -0.061050415, 0.005432129, -0.011428833, 4943847, 0.11857292, 0.043805122, -0.21559, 0, 0, 0
4943848, -0.06838989, 0.0029907227, -0.016311646, 4943848, 0.078475654, 0.015780449, -0.11512852, 0, 0, 0
4943848, -0.06716919, 0.0017547607, -0.017547607, 4943848, -0.042877614, 0.033313274, 0.09349918, 0, 0, 0
4943847, -0.069610596, -0.0019073486, -0.024871826, 4943847, -0.1325472, -0.015138626, 0.23089695, 0, 0, 0
4943848, -0.056167603, 0.0017547607, -0.013870239, 4943848, -0.18079129, 0.049474716, 0.44438314, 0, 0, 0
4943848, -0.040283203, -0.005569458, -0.010223389, 4943848, -0.17554948, -0.02528286, 0.50902987, 0, 0, 0
4943847, -0.019515991, -0.020233154, -4.5776367E-4, 4943847, -0.20384392, -0.068795204, 0.53437805, 0, 0, 0
4913330, -0.0024261475, -0.017791748, 0.015411377, 4913330, -0.1335356, -0.05527115, 0.49985695, 0, 0, 0
4974366, 0.035446167, -0.014129639, 0.015411377, 4974366, -0.1358059, -0.04567194, 0.4427328, 0, 0, 0
4913330, 0.058654785, -0.016571045, 0.027648926, 4913330, -0.11243367, -0.10224295, 0.3408103, 0, 0, 0
4943847, 0.074539185, -0.023895264, 0.023971558, 4943847, -0.06395128, -0.020631313, 0.24702263, 0, 0, 0
4974365, 0.08554077, -0.036117554, 0.022766113, 4974365, 0.05445677, 0.02137947, 0.15709448, 0, 0, 0
4943848, 0.09286499, -0.041000366, 0.023971558, 4943848, 0.09417313, 0.07108164, 0.080760956, 0, 0, 0
4943848, 0.10140991, -0.036117554, 0.019088745, 4943848, 0.19481641, 0.09298563, -0.037408352, 0, 0, 0
4974365, 0.06109619, -0.027572632, 0.0032043457, 4943848, 0.19481641, 0.09298563, -0.037408352, 0, 0, 0
5065918, 0.0476532, -0.019012451, 0.008087158, 7080078, 0.2396411, 0.12530947, -0.103485584, 0, 0, 0
5004883, 0.030563354, -0.0019073486, -0.001663208, 4974365, 0.2410424, 0.08686733, -0.15742493, 0, 0, 0
5065918, 0.011001587, 0.005432129, -0.00289917, 5065918, 0.26194325, 0.08812904, -0.1426115, 0, 0, 0
5065918, 0.011001587, 0.005432129, -0.00289917, 5065918, 0.2442542, 0.07451439, -0.10567379, 0, 0, 0
4913330, 0.019561768, 0.010314941, -0.010223389, 4913330, 0.21093115, 0.08076286, -0.079945564, 0, 0, 0
4943848, 0.0073547363, 0.011520386, -0.023666382, 4913330, 0.21093115, 0.08076286, -0.079945564, 0, 0, 0
4943848, 0.022003174, 0.0090789795, -0.026107788, 4974365, -0.0611746, 0.023751259, 0.022963524, 0, 0, 0
4943848, 0.022003174, 0.0090789795, -0.026107788, 4943848, -0.12525052, -0.11955738, 0.002407074, 0, 0, 0
4943847, 0.014678955, 0.004196167, -0.017547607, 4943847, -0.15727025, -0.15586996, -0.023000717, 0, 0, 0
4943848, 0.0158844, -0.008010864, -0.016311646, 4943848, -0.14411908, -0.17234182, 0.0538702, 0, 0, 0
4913330, 0.029327393, -0.005569458, -0.0041046143, 4913330, -0.12625185, -0.1482935, 0.0696311, 0, 0, 0
4913330, 0.026885986, -0.011688232, 0.006881714, 4913330, -0.12625185, -0.1482935, 0.0696311, 0, 0, 0
4974365, 0.026885986, -0.015335083, 0.006881714, 4974365, -0.09345952, -0.15051317, -0.0010609627, 0, 0, 0
4913331, 0.029327393, -0.021453857, 0.00932312, 4913330, -0.045702457, -0.14336967, -0.0036997795, 0, 0, 0
4974365, 0.03300476, -0.030014038, 0.010528564, 4974365, 0.012175471, -0.07427406, -0.16400385, 0, 0, 0
4943847, 0.0158844, -0.03855896, 0.00932312, 4913331, 0.0885241, -0.02472496, -0.24306536, 0, 0, 0
4943848, -0.010955811, -0.041000366, 0.012969971, 4974365, 0.1535255, -0.004907608, -0.31903744, 0, 0, 0
4943848, -0.04272461, -0.008010864, 0.012969971, 4943847, 0.14492983, 0.087819576, -0.4387374, 0, 0, 0
4943847, -0.07937622, 0.012756348, 0.021530151, 4943848, 0.1569345, 0.0890007, -0.4699912, 0, 0, 0
4943847, -0.07937622, 0.012756348, 0.021530151, 4943847, 0.039660722, 0.09300184, -0.31187105, 0, 0, 0
5004883, -0.10626221, 0.059158325, 0.049621582, 4943847, 0.039660722, 0.09300184, -0.31187105, 0, 0, 0
5004883, -0.10626221, 0.059158325, 0.049621582, 5004883, -0.17473078, -0.20248747, -0.21433735, 0, 0, 0
4943848, -0.080596924, 0.08848572, 0.06796265, 4943848, -0.21124893, -0.33921814, -0.24822044, 0, 0, 0
4943848, -0.0549469, 0.0811615, 0.08262634, 4943848, -0.0076358914, -0.52242947, -0.10262251, 0, 0, 0
4943848, 0.123413086, 0.40979004, 0.07772827, 4943848, -0.0076358914, -0.52242947, -0.10262251, 0, 0, 0
4943848, 0.123413086, 0.40979004, 0.07772827, 4943848, 0.7569657, -0.14181662, -0.96266174, 0, 0, 0
7049560, 0.20892334, 0.682251, 0.04473877, 7049560, 0.6141869, 0.1760788, -1.3716984, 0, 0, 0
5035401, 0.20404053, 0.6993408, 0.00932312, 5035401, 0.49551195, 0.42114973, -1.5670581, 1, 973, 1222
4577637, 0.051330566, 0.3474884, -0.024871826, 5035401, 0.49551195, 0.42114973, -1.5670581, 0, 0, 0
4577637, 0.051330566, 0.3474884, -0.024871826, 4577637, -0.25593576, 0.24382496, -1.5156369, 0, 0, 0
5035400, -0.07571411, 0.16056824, -0.026107788, 5035400, -0.30983648, 0.14638948, -0.95439005, 0, 0, 0
4913330, -0.17955017, -0.031219482, -0.029754639, 4913330, -0.28829265, 0.09906292, -0.48675013, 0, 0, 0
4943848, -0.27485657, -0.18637085, -0.039535522, 4943848, -0.39374718, -0.042040348, 0.30005407, 0, 0, 0
4943847, -0.3383789, -0.25479126, -0.0309906, 4943847, -0.40958416, -0.15182877, 1.0618877, 0, 0, 0
4943848, -0.32861328, -0.26091003, -0.028549194, 4943848, -0.32828853, -0.30081177, 1.6279497, 0, 0, 0
4943848, -0.27607727, -0.24990845, -0.023666382, 4943848, -0.24470982, -0.40397596, 2.0034294, 0, 0, 0
4913330, -0.18443298, -0.25479126, -0.033432007, 4913330, -0.23773655, -0.43189192, 2.12004, 0, 0, 0
5004883, -0.072052, -0.27679443, -0.039535522, 5004883, -0.20976862, -0.3950987, 1.9479032, 0, 0, 0
4882812, 0.0158844, -0.30734253, -0.023666382, 4882812, -0.15671727, -0.30809593, 1.6743875, 0, 0, 0
4974365, 0.09286499, -0.32566833, -0.026107788, 4974365, -0.15047991, -0.2377758, 1.1958637, 0, 0, 0
4943848, 0.13562012, -0.34155273, -0.021224976, 4943848, -0.10408193, -0.15271425, 0.7743645, 0, 0, 0
4974365, 0.14173889, -0.35375977, -0.012664795, 4974365, 0.09254488, -0.25089884, 0.40562344, 0, 0, 0
4913330, 0.14906311, -0.31832886, -0.01876831, 4913330, 0.49639368, -0.6099005, 0.28382683, 0, 0, 0
4943848, 0.15638733, -0.20837402, -0.033432007, 4943848, 0.30278614, -0.4165287, 0.06173086, 0, 0, 0
4943848, 0.16983032, -0.030014038, -0.03465271, 4943848, 0.08753204, -0.10851145, -0.22830248, 0, 0, 0
4974365, 0.1600647, 0.111694336, -0.0077819824, 4974365, 0.06267172, 0.12117386, -0.62420034, 0, 0, 0
4913330, 0.13439941, 0.19233704, 0.012969971, 4913330, 0.04799959, 0.22348595, -1.0602636, 0, 0, 0
4943848, 0.090423584, 0.16056824, 0.011764526, 4943848, 0.067694366, 0.26720524, -1.3391981, 0, 0, 0
4943847, 0.019561768, 0.06283569, 0.0019989014, 4943847, 0.05098051, 0.28836346, -1.3186727, 0, 0, 0
4943848, -0.052505493, -0.036117554, -0.013870239, 4943848, -0.06677076, 0.346385, -1.01507, 0, 0, 0
4943848, -0.10626221, -0.11430359, 0.0044403076, 4943848, -0.18231052, 0.34762907, -0.48155022, 0, 0, 0
4943847, -0.14169312, -0.11430359, 0.016647339, 4943847, -0.19732371, 0.29054928, 0.017681122, 0, 0, 0
4943848, -0.14169312, -0.13630676, 0.016647339, 4943848, -0.11865029, 0.28486967, 0.3262005, 0, 0, 0
5035400, -0.1209259, -0.1326294, 0.03375244, 4943848, -0.11865029, 0.28486967, 0.3262005, 0, 0, 0
5035400, -0.1209259, -0.1326294, 0.03375244, 5035400, -0.030521244, -0.0067567825, 0.65058804, 0, 0, 0
5065918, -0.07815552, -0.14118958, 0.034973145, 5065918, -0.10294965, -0.028967857, 0.9018669, 0, 0, 0
5035401, -0.03540039, -0.17416382, 0.030090332, 5035401, -0.11736193, 0.04857731, 0.89148283, 0, 0, 0
5004882, 0.02079773, -0.19737244, 0.03375244, 5004882, -0.09476486, 0.05428028, 0.8387313, 0, 0, 0
4943848, 0.0635376, -0.19616699, 0.047180176, 4943848, -0.02587542, 0.0035204887, 0.66069746, 0, 0, 0
4974365, 0.08430481, -0.17295837, 0.042297363, 4974365, 0.12428546, -0.078985214, 0.46034384, 0, 0, 0
4974366, 0.10386658, -0.08743286, 0.038635254, 4974365, 0.12428546, -0.078985214, 0.46034384, 0, 0, 0
4943847, 0.1124115, -0.031219482, 0.030090332, 4913330, 0.21098244, -0.11765289, 0.3235383, 0, 0, 0
4943848, 0.1124115, 0.028625488, 0.02885437, 4974366, 0.30346915, -0.10682535, 0.088583946, 0, 0, 0
4943848, 0.1124115, 0.028625488, 0.02885437, 4943848, 0.44976223, -0.067765236, -0.36887598, 0, 0, 0
4943848, 0.1124115, 0.028625488, 0.022766113, 4943848, 0.4885876, -0.041168213, -0.56441545, 0, 0, 0
4913330, 0.06965637, 0.09703064, 0.015411377, 4943848, 0.4885876, -0.041168213, -0.56441545, 0, 0, 0
4974366, 0.053771973, 0.09336853, 0.008087158, 4943847, 0.44388157, 0.013834953, -0.65948534, 0, 0, 0
4913330, 0.02444458, 0.09214783, 0.005645752, 4913330, 0.3768897, 0.052860737, -0.6828451, 0, 0, 0
5004882, -0.00730896, 0.066482544, -0.001663208, 4974366, 0.2908428, 0.10035515, -0.58592176, 0, 0, 0
4913331, -0.031723022, 0.054275513, -4.5776367E-4, 4913330, 0.15467188, 0.06463909, -0.4686799, 0, 0, 0
4974365, -0.045166016, 0.03227234, -4.5776367E-4, 5004882, 0.06958684, 0.03953886, -0.28006077, 0, 0, 0
4943847, -0.037841797, -0.00680542, -0.012664795, 4913331, 0.06514418, 0.055946827, -0.065039635, 0, 0, 0
4943847, -0.037841797, -0.00680542, -0.012664795, 4943847, -0.007881433, -0.006178856, 0.3975091, 0, 0, 0
4974366, -0.025634766, -0.014129639, -0.01876831, 4974366, -0.01244539, -0.0018134117, 0.42419052, 0, 0, 0
4913330, 0.0061187744, -0.019012451, -0.010223389, 4913330, -8.2090497E-4, -0.13736677, 0.38034678, 0, 0, 0
4913330, 0.06477356, -0.0104522705, -0.015106201, 4913330, -8.2090497E-4, -0.13736677, 0.38034678, 0, 0, 0
4913330, 0.06477356, -0.0104522705, -0.015106201, 4913330, 0.0021363497, -0.15287781, 0.3203187, 0, 0, 0
4943847, 0.1136322, -0.011688232, -0.0041046143, 4913330, 0.0021363497, -0.15287781, 0.3203187, 0, 0, 0
4943847, 0.1136322, -0.011688232, -0.0041046143, 4943847, -0.011753947, -0.120630264, 0.06214428, 0, 0, 0
4943848, 0.12097168, -0.015335083, -0.0041046143, 4943848, 0.03206703, -0.050171375, -0.12244558, 0, 0, 0
7019043, 0.11729431, -0.03489685, 7.6293945E-4, 7019043, 0.05145204, -0.019871712, -0.29437876, 0, 0, 0
5065918, 0.1124115, -0.036117554, -0.001663208, 5065918, 0.09582922, -0.05678749, -0.41148758, 0, 0, 0
5035400, 0.0977478, -0.027572632, 0.0032043457, 5035400, 0.14175636, -0.047245026, -0.46154308, 0, 0, 0
5035401, 0.08554077, -0.011688232, 0.0032043457, 5035401, 0.1744884, -0.025717258, -0.5461588, 0, 0, 0
5035400, 0.057434082, 0.012756348, 0.006881714, 5035400, 0.12917766, -0.043527603, -0.57767296, 0, 0, 0
4913330, 0.04032898, 0.026184082, -0.00289917, 4913330, 0.12294087, -0.07073641, -0.56220055, 0, 0, 0
4974365, -0.0011901855, 0.010314941, -0.0041046143, 4974365, 0.091018766, -0.100400925, -0.45322132, 0, 0, 0
4943848, -0.0048675537, 0.015197754, -0.016311646, 4943848, 0.05210358, -0.09474182, -0.25878572, 0, 0, 0
4913330, -0.014633179, 0.0066375732, -0.012664795, 4913330, 0.046666235, -0.0756011, -0.1494627, 0, 0, 0
4974365, -0.02319336, -0.019012451, -0.011428833, 4974365, 0.07803747, -0.047356606, -0.05242157, 0, 0, 0
4943848, -0.025634766, -0.027572632, -0.016311646, 4943848, 0.18579715, -0.017024517, -0.062345505, 0, 0, 0
4943848, -0.017074585, -0.03489685, -0.013870239, 4943848, 0.21255833, -0.008817673, -0.014371872, 0, 0, 0
4943847, -0.02319336, -0.027572632, -0.017547607, 4943847, 0.19314885, -0.026643753, 0.008928776, 0, 0, 0
4943848, -0.018295288, -0.031219482, -0.02243042, 4943848, 0.11537838, -0.046899796, 0.11872959, 0, 0, 0
4943848, -0.013397217, -0.008010864, -0.024871826, 4943848, 0.03701192, -0.09711456, 0.048570156, 0, 0, 0
4913330, -0.010955811, 0.016403198, -0.027313232, 4913330, 0.05958149, -0.1114583, 0.0010356903, 0, 0, 0
4943847, -0.00730896, 0.023742676, -0.01876831, 4943847, 0.01564449, -0.17624092, 0.021167278, 0, 0, 0
4974366, -0.012191772, 0.043273926, -0.012664795, 4974366, 0.03260064, -0.1626873, 0.034751892, 0, 0, 0
4943847, 0.0036773682, 0.06893921, -0.0041046143, 4943847, 0.009987175, -0.15012693, 0.004585743, 0, 0, 0
4943848, 1.5258789E-5, 0.06893921, 7.6293945E-4, 4943848, -0.007104993, -0.1350131, -0.06862259, 0, 0, 0
4943848, 0.011001587, 0.07626343, 0.0019989014, 4943848, -0.025924534, -0.14908266, -0.078397274, 0, 0, 0
4943847, 0.009796143, 0.07382202, 0.0032043457, 4943847, -0.09531152, -0.12527418, -0.07354736, 0, 0, 0
4943848, 0.013442993, 0.07260132, 0.0032043457, 4943848, -0.111370325, -0.07050133, -0.08781099, 0, 0, 0
4974365, -0.0036315918, 0.07260132, 0.006881714, 4974365, -0.146916, -0.095098495, -0.08480024, 0, 0, 0
4913330, -0.0036315918, 0.07015991, 0.006881714, 4913330, -0.12692323, -0.08789635, -0.050773144, 0, 0, 0
4943848, -0.0024261475, 0.054275513, 0.010528564, 4943848, -0.099809825, -0.061792374, -0.028355598, 0, 0, 0
4943848, 1.5258789E-5, 0.051834106, 0.014205933, 4943848, -0.0862008, -0.041035652, -0.14338684, 0, 0, 0
5004883, -0.034179688, 0.013961792, 0.022766113, 4943848, -0.0862008, -0.041035652, -0.14338684, 0, 0, 0
5065918, -0.05860901, -0.005569458, 0.030090332, 7049560, -0.16520676, -0.0056447983, -0.18131447, 0, 0, 0
5004883, -0.076934814, -6.866455E-4, 0.047180176, 5004883, -0.20776793, 0.06624174, -0.28156233, 0, 0, 0
5004883, -0.076934814, -6.866455E-4, 0.047180176, 5004883, -0.31611854, -4.1770935E-4, -0.26411676, 0, 0, 0
4943848, -0.09526062, -0.00680542, 0.115600586, 5004883, -0.31611854, -4.1770935E-4, -0.26411676, 0, 0, 0
4943848, -0.09526062, -0.00680542, 0.115600586, 4943848, -0.37016764, -0.1913333, -0.0838685, 0, 0, 0
4943848, -0.052505493, 0.010314941, 0.15959167, 4943848, -0.37016764, -0.1913333, -0.0838685, 0, 0, 0
4913330, 1.5258789E-5, 0.012756348, 0.16569519, 4974365, -0.12165469, -0.2653489, -0.029485703, 0, 0, 0
4974365, 1.5258789E-5, 0.012756348, 0.14859009, 4943848, 0.20436057, -0.25079346, -0.036093235, 0, 0, 0
4943848, 0.039108276, 0.026184082, 0.14859009, 4913330, 0.40903005, -0.19547367, -0.041201115, 0, 0, 0
4943848, 0.039108276, 0.026184082, 0.14859009, 4943848, 0.5654597, -0.106636524, 0.08881092, 0, 0, 0
4943848, 0.2101593, 0.54541016, 0.08262634, 4943848, 0.5654597, -0.106636524, 0.08881092, 0, 0, 0
4943848, 0.2101593, 0.54541016, 0.08262634, 4943848, 0.8613061, 0.02570343, -1.5686016, 0, 0, 0
4943848, 0.13439941, 0.43788147, -0.021224976, 4943848, 0.8613061, 0.02570343, -1.5686016, 0, 0, 0
4974365, 0.06843567, 0.23019409, -0.055419922, 4913330, 0.43603513, 0.34151888, -1.2490969, 1, 975, 1201
4943848, -0.045166016, 0.05795288, -0.037094116, 4943848, -0.17341974, 0.46379232, -1.3401074, 0, 0, 0
4943848, -0.045166016, 0.05795288, -0.037094116, 4943848, -0.48287278, 0.14134264, -0.09856033, 0, 0, 0
4943848, -0.19667053, -0.20960999, -0.005340576, 4943848, -0.48287278, 0.14134264, -0.09856033, 0, 0, 0
4943848, -0.22964478, -0.27067566, -0.001663208, 4943847, -0.2877823, -0.023657799, 0.5004411, 0, 0, 0
4943847, -0.22599792, -0.29389954, 0.0044403076, 4943848, -0.0057862997, -0.21623278, 0.9572425, 0, 0, 0
4943847, -0.22599792, -0.29389954, 0.0044403076, 4943847, 0.3852376, -0.24486351, 1.7951946, 0, 0, 0
4943847, -0.1526947, -0.25479126, -0.040756226, 4943847, 0.3852376, -0.24486351, 1.7951946, 0, 0, 0
4943848, -0.0867157, -0.23526001, -0.06764221, 4943848, 0.40453038, -0.24805546, 1.723342, 0, 0, 0
4943848, -0.02319336, -0.23646545, -0.068862915, 4943847, 0.17484596, -0.25146818, 1.4407477, 0, 0, 0
4913330, 0.02444458, -0.24014282, -0.051757813, 4943848, -0.07505438, -0.24873924, 1.1777825, 0, 0, 0
4913330, 0.02444458, -0.24014282, -0.051757813, 4913330, -0.1635172, -0.20222044, 0.64839363, 0, 0, 0
4974365, 0.06965637, -0.1497345, -0.016311646, 4974365, -0.065202594, -0.19970703, 0.25611496, 0, 0, 0
7049561, 0.11729431, 0.0090789795, -0.021224976, 7049561, 0.05146247, -0.2348628, -0.17549038, 0, 0, 0
5004882, 0.1307373, 0.13124084, -0.023666382, 5004882, 0.18941835, -0.19589138, -0.610374, 0, 0, 0
5065918, 0.13195801, 0.15812683, -0.065200806, 5065918, 0.2687938, -0.15738297, -0.80733156, 0, 0, 0
5004883, 0.10386658, 0.12147522, -0.08718872, 5004883, 0.14960879, -0.05685854, -0.8904271, 0, 0, 0
5065918, 0.05621338, 0.05671692, -0.07740784, 5065918, -0.07329586, 0.10961676, -0.8209233, 0, 0, 0
4913330, -0.015838623, -0.0104522705, -0.061523438, 4913330, -0.25550294, 0.24962044, -0.48286963, 0, 0, 0
4974366, -0.09526062, -0.044662476, -0.028549194, 4974366, -0.29970166, 0.2776785, -0.18940163, 0, 0, 0
4943847, -0.14535522, -0.06666565, -0.001663208, 4943847, -0.1408681, 0.24563074, 0.15032625, 0, 0, 0
4943848, -0.16856384, -0.088653564, 0.014205933, 4943848, 0.03732276, 0.16610336, 0.54535437, 0, 0, 0
4943848, -0.15878296, -0.08743286, 0.030090332, 4943848, 0.16494045, 0.107628345, 0.8658862, 0, 0, 0
4913330, -0.13435364, -0.080093384, 0.017868042, 4913330, 0.20916232, 0.10435867, 0.99789476, 0, 0, 0
4974365, -0.09648132, -0.088653564, 0.016647339, 4974365, 0.15570045, 0.11230469, 0.99972343, 0, 0, 0
4913330, -0.045166016, -0.103302, 0.027648926, 4913330, 0.041900992, 0.09242821, 0.9400444, 0, 0, 0
4974365, 0.012237549, -0.10820007, 0.02885437, 4974365, -0.03774205, 0.091483116, 0.7513852, 0, 0, 0
4943848, 0.035446167, -0.10697937, 0.02520752, 4943848, -0.006819278, 0.07212114, 0.5611863, 0, 0, 0
4943847, 0.05987549, -0.09963989, 0.02520752, 4943847, 0.05586034, 0.0238657, 0.28825378, 0, 0, 0
4943848, 0.057434082, -0.064208984, 0.014205933, 4943848, 0.104795456, -0.056144714, 0.1732955, 0, 0, 0
4943848, 0.065979004, -0.008010864, 0.010528564, 4943848, 0.1315782, -0.1434474, 0.074192524, 0, 0, 0
4943847, 0.0635376, 0.04206848, 0.005645752, 4943847, 0.14151281, -0.24209976, 0.0040631294, 0, 0, 0
4943848, 0.05255127, 0.0811615, 0.0032043457, 4943848, 0.11815971, -0.20193768, -0.06598377, 0, 0, 0
4913330, 0.050094604, 0.103149414, -0.0041046143, 4913330, 0.07145634, -0.21204376, -0.13998222, 0, 0, 0
4974365, 0.050094604, 0.103149414, 7.6293945E-4, 4974365, -0.026750118, -0.19894361, -0.05956602, 0, 0, 0
4943848, 0.051330566, 0.103149414, 7.6293945E-4, 4943848, -0.054656953, -0.13424158, -0.100869656, 0, 0, 0
4943848, 0.051330566, 0.08236694, 0.0019989014, 4943848, -2.245009E-4, -0.21736526, -0.1961813, 0, 0, 0
4943847, 0.04888916, 0.05671692, 0.012969971, 4943847, 0.037656277, 0.012557983, -0.16561413, 0, 0, 0
4943848, 0.0476532, 0.055496216, 0.006881714, 4943848, 0.10861197, 0.045943737, -0.23855639, 0, 0, 0
4943848, 0.044006348, 0.035949707, 7.6293945E-4, 4943848, 0.18155885, 0.011009216, -0.21330976, 0, 0, 0
7049560, 0.039108276, 0.018859863, -0.008987427, 7049560, 0.11033383, 0.012137413, -0.083770275, 0, 0, 0
5035400, 0.054992676, 0.0029907227, -0.028549194, 7049560, 0.11033383, 0.012137413, -0.083770275, 0, 0, 0
5035400, 0.067214966, -0.0031280518, -0.021224976, 5035401, 0.025486678, -0.0312953, 0.021102428, 0, 0, 0
5035400, 0.067214966, -0.0031280518, -0.021224976, 5035400, 0.028116792, -0.0808959, 0.036222935, 0, 0, 0
5035401, 0.0635376, -0.011688232, -0.033432007, 5035401, -0.023351341, -0.08119631, -0.029661179, 0, 0, 0
4943847, 0.067214966, -0.008010864, -0.023666382, 4943847, -0.021550626, -0.11632872, -0.15356016, 0, 0, 0
4974365, 0.07209778, 0.0017547607, -0.0041046143, 4943847, -0.021550626, -0.11632872, -0.15356016, 0, 0, 0
4882813, 0.067214966, 0.007873535, -0.0041046143, 4943848, -0.073625326, -0.13158798, -0.16679525, 0, 0, 0
4882813, 0.067214966, 0.007873535, -0.0041046143, 4882813, -0.053646386, -0.11968136, -0.19430733, 0, 0, 0
4943848, 0.05987549, -0.0104522705, -0.00289917, 4882813, -0.053646386, -0.11968136, -0.19430733, 0, 0, 0
4943848, 0.05987549, -0.0104522705, -0.00289917, 4943848, 0.06188947, -0.16726637, -0.22352219, 0, 0, 0
4943847, 0.042770386, -0.020233154, -0.010223389, 4943847, -0.080373675, -0.1531229, -0.15635872, 0, 0, 0
4913330, 0.03300476, -0.02267456, -0.008987427, 4913330, -0.070181936, -0.12628794, -0.1022706, 0, 0, 0
4943847, 0.025680542, -0.00680542, -0.001663208, 4913330, -0.070181936, -0.12628794, -0.1022706, 0, 0, 0
4943848, 0.02444458, 0.0090789795, -4.5776367E-4, 4974366, -0.015553296, -0.104786396, -0.06959152, 0, 0, 0
4943848, 0.035446167, 0.02130127, 0.010528564, 4943847, -0.0046058, -0.13782835, -0.025506496, 0, 0, 0
4943848, 0.035446167, 0.02130127, 0.010528564, 4943848, 0.06673437, -0.14026451, -0.17010832, 0, 0, 0
4943848, 0.0317688, 0.05305481, 0.011764526, 4943848, 0.06673437, -0.14026451, -0.17010832, 0, 0, 0
4943848, 0.035446167, 0.066482544, 0.027648926, 4943847, 0.11694461, -0.16697836, -0.27888966, 0, 0, 0
4943847, 0.022003174, 0.05305481, 0.022766113, 4943848, 0.12009853, -0.16642475, -0.32227087, 0, 0, 0
4943848, -0.010955811, 0.05671692, 0.02520752, 4943848, 0.100832134, -0.11884785, -0.379004, 0, 0, 0
4943848, -0.037841797, 0.0652771, 0.016647339, 4943847, 0.13970348, -0.05202532, -0.47740793, 0, 0, 0
4943848, -0.037841797, 0.0652771, 0.016647339, 4943848, 0.3497712, 0.030517578, -0.572947, 0, 0, 0
5004882, -0.09526062, 0.087265015, -0.0077819824, 4943848, 0.3497712, 0.030517578, -0.572947, 0, 0, 0
4913331, -0.14413452, 0.10069275, -0.0065460205, 4913330, 0.38699105, 0.038161278, -0.5966811, 0, 0, 0
4913330, -0.16612244, 0.11657715, -4.5776367E-4, 5004882, 0.26177865, -0.03361225, -0.4874916, 0, 0, 0
4913330, -0.16612244, 0.11657715, -4.5776367E-4, 4913330, -0.13929471, -0.12205601, -0.07656765, 0, 0, 0
7049560, -0.15757751, 0.12025452, 0.022766113, 7049560, -0.3372888, -0.25318956, 0.067815304, 0, 0, 0
5065918, -0.13069153, 0.10925293, 0.052078247, 5065918, -0.43366072, -0.37823915, 0.28147745, 0, 0, 0
5035401, -0.09159851, 0.08604431, 0.06430054, 5035401, -0.41272983, -0.4672804, 0.4210167, 0, 0, 0
5035400, -0.030517578, 0.066482544, 0.078948975, 5035400, -0.29325685, -0.4423194, 0.58135843, 0, 0, 0
5065918, 0.044006348, 0.043273926, 0.10949707, 5065918, -0.15764132, -0.34005404, 0.49897528, 0, 0, 0
4913330, 0.0965271, 0.028625488, 0.11315918, 4913330, 0.050171137, -0.17745447, 0.2511592, 0, 0, 0
4943848, 0.13317871, 0.018859863, 0.107055664, 4943848, 0.24596855, -0.077284336, -0.057275295, 0, 0, 0
4943847, 0.16127014, 0.09580994, 0.094833374, 4943847, 0.28523245, 0.014297962, -0.08028793, 0, 0, 0
4943848, 0.22236633, 0.39146423, 0.08628845, 4943848, 0.6880326, 0.09399843, -0.8823042, 0, 0, 0
4943848, 0.20280457, 0.46232605, 0.049621582, 4943848, 0.85717905, 0.071671486, -1.6708884, 0, 0, 0
4974365, 0.10140991, 0.3426056, -0.001663208, 4974365, 0.52916104, 0.19743204, -1.430501, 0, 0, 0
4913330, -0.014633179, 0.13002014, -0.060302734, 4913330, -0.19362172, 0.17341518, -1.087944, 1, 961, 1156
4943848, -0.10748291, -0.041000366, -0.063964844, 4943848, -0.6097673, 0.24882126, -0.6140065, 0, 0, 0
4913330, -0.18199158, -0.14239502, -0.019989014, 4913330, -0.6916174, 0.25984335, 0.25060892, 0, 0, 0
4974365, -0.19787598, -0.16195679, 0.011764526, 4974365, -0.36272186, 0.13238144, 0.846776, 0, 0, 0
4943848, -0.19422913, -0.17539978, 0.026412964, 4943848, 0.10874182, 0.101958275, 0.972764, 0, 0, 0
4821777, -0.13313293, -0.22058105, -0.027313232, 4943848, 0.10874182, 0.101958275, 0.972764, 0, 0, 0
4821777, -0.13313293, -0.22058105, -0.027313232, 4821777, 0.55902696, 0.10560417, 1.2624359, 0, 0, 0
4943848, -0.09037781, -0.22058105, -0.065200806, 4943848, 0.34923458, 0.08004427, 1.2694716, 0, 0, 0
4943847, -0.09037781, -0.23646545, -0.07130432, 4943847, -0.06430778, 0.05201769, 1.0620012, 0, 0, 0
4913330, -0.052505493, -0.2511444, -0.07130432, 4913330, -0.23155639, -0.14167404, 0.93340683, 0, 0, 0
4974365, -0.018295288, -0.23770142, -0.065200806, 4974365, -0.14581308, -0.32826614, 0.9207773, 0, 0, 0
4943848, 0.025680542, -0.15707397, -0.063964844, 4943848, -0.025835693, -0.30750608, 0.6660948, 0, 0, 0
4943848, 0.065979004, -0.0043640137, -0.06764221, 4943848, 0.13479087, -0.2762189, 0.27148438, 0, 0, 0
4943847, 0.10018921, 0.10925293, -0.07374573, 4943847, 0.20124963, -0.25423145, -0.08624554, 0, 0, 0
4943848, 0.10997009, 0.15568542, -0.09085083, 4943848, 0.2122593, -0.17308187, -0.3863597, 0, 0, 0
4943848, 0.10874939, 0.14224243, -0.100616455, 4943848, 0.061351717, -0.0157938, -0.56990194, 0, 0, 0
7049560, 0.050094604, 0.035949707, -0.11039734, 7049560, -0.04818967, 0.16020346, -0.7812276, 0, 0, 0
5035401, -0.019515991, -0.012893677, -0.10551453, 5035401, -0.042488128, 0.13868189, -0.6137042, 0, 0, 0
5035400, -0.076934814, -0.05078125, -0.088409424, 5035400, -0.07833904, 0.13596296, -0.36629152, 0, 0, 0
5035400, -0.1368103, -0.080093384, -0.08352661, 5035400, -0.16210875, 0.0636816, -0.16615963, 0, 0, 0
4974366, -0.16246033, -0.092315674, -0.060302734, 5035400, -0.16210875, 0.0636816, -0.16615963, 0, 0, 0
4974366, -0.16246033, -0.092315674, -0.060302734, 4974366, -0.14919972, 0.09203768, 0.5116377, 0, 0, 0
4943847, -0.16122437, -0.09963989, -0.037094116, 4943847, -0.068660915, 0.12717962, 0.84911156, 0, 0, 0
4943847, -0.12702942, -0.09353638, -0.03831482, 4943847, -0.068660915, 0.12717962, 0.84911156, 0, 0, 0
4943847, -0.12702942, -0.09353638, -0.03831482, 4943847, -0.09138009, 0.15229034, 0.86460733, 0, 0, 0
4943848, -0.041519165, -0.05444336, -0.01876831, 4943847, -0.09138009, 0.15229034, 0.86460733, 0, 0, 0
4943848, -0.041519165, -0.05444336, -0.01876831, 4943848, -0.13100654, -0.026780605, 0.7069087, 0, 0, 0
4913330, 0.022003174, -0.060546875, -0.0077819824, 4913330, -0.13193119, -0.1472497, 0.4755888, 0, 0, 0
5493164, 0.07209778, -0.037338257, -0.00289917, 5493164, -0.14266816, -0.14072514, 0.304276, 0, 0, 0
4913330, 0.145401, -0.008010864, -0.005340576, 5493164, -0.14266816, -0.14072514, 0.304276, 0, 0, 0
4913330, 0.145401, -0.008010864, -0.005340576, 4913330, -0.150514, -0.13522577, -0.20259333, 0, 0, 0
4974365, 0.1478424, 0.017623901, 0.0044403076, 4974365, -0.08178827, -0.10237789, -0.4507103, 0, 0, 0
4943848, 0.14294434, 0.031066895, 0.010528564, 4943848, 0.049447507, -0.09652901, -0.5358882, 0, 0, 0
4974365, 0.12463379, 0.05305481, 0.017868042, 4974365, 0.19042358, -0.009422779, -0.6804619, 0, 0, 0
4913330, 0.10508728, 0.06404114, 0.019088745, 4913330, 0.26917318, 0.014382362, -0.6558633, 0, 0, 0
4943848, 0.0317688, 0.06159973, 0.016647339, 4913330, 0.26917318, 0.014382362, -0.6558633, 0, 0, 0
4974365, 0.011001587, 0.05795288, 0.00932312, 4913330, 0.3020457, 0.031629086, -0.61028147, 0, 0, 0
4974365, 0.011001587, 0.05795288, 0.00932312, 4974365, 0.19624278, -0.029552937, -0.46737814, 0, 0, 0
4913330, -0.017074585, 0.04083252, -0.0065460205, 4913330, 0.11583519, -0.05223608, -0.29724503, 0, 0, 0
4974365, -0.04272461, 0.0090789795, -0.01876831, 4913330, 0.11583519, -0.05223608, -0.29724503, 0, 0, 0
4943848, -0.047607422, 0.004196167, -0.01876831, 4943848, 0.04652378, -0.043609142, -0.16370153, 0, 0, 0
4943847, -0.040283203, -0.0043640137, -0.039535522, 4974365, -0.0016208291, -0.107138634, 0.13454962, 0, 0, 0
4943847, -0.040283203, -0.0043640137, -0.039535522, 4943847, -0.006567329, -0.15664673, 0.19866896, 0, 0, 0
5035400, 0.0012359619, -0.020233154, -0.027313232, 4943847, -0.006567329, -0.15664673, 0.19866896, 0, 0, 0
5035400, 0.04032898, -0.03366089, -0.010223389, 4943847, -0.006567329, -0.15664673, 0.19866896, 0, 0, 0
5035400, 0.04032898, -0.03366089, -0.010223389, 5035400, -0.06598997, -0.11645746, 0.23057842, 0, 0, 0
5035400, 0.04032898, -0.03366089, -0.010223389, 5035400, -0.033618957, -0.094993114, 0.12032747, 0, 0, 0
5004883, 0.05255127, -0.03366089, -0.019989014, 5004883, 0.01755479, -0.11381292, -0.0058255196, 0, 0, 0
4974365, 0.06109619, -0.03489685, -0.019989014, 4974365, 0.0685491, -0.17041874, 0.0265584, 0, 0, 0
4943848, 0.06965637, -0.023895264, -0.021224976, 4943848, 0.14938655, -0.17295074, -0.004741192, 0, 0, 0
4943847, 0.04888916, -0.015335083, -0.03465271, 4943847, 0.16386864, -0.14943552, -0.21341848, 0, 0, 0
4943848, 0.044006348, -0.0104522705, -0.03465271, 4943848, 0.13067201, -0.17215204, -0.2467184, 0, 0, 0
4974365, 0.02079773, -0.014129639, -0.023666382, 4974365, 0.07077259, -0.12792873, -0.2820325, 0, 0, 0
4913330, -0.009750366, 0.0090789795, -0.026107788, 4913330, 0.0046802163, -0.097157, -0.3156209, 0, 0, 0
4943848, -0.00730896, 0.026184082, -0.01876831, 4943848, -0.010363847, -0.09433746, -0.30811644, 0, 0, 0
4943848, -0.021957397, 0.045715332, -0.005340576, 4943848, 0.07113066, -0.06462479, -0.332057, 0, 0, 0
4913330, -0.03540039, 0.044509888, 0.0044403076, 4913330, 0.12188342, -0.021142006, -0.33188868, 0, 0, 0
4974365, -0.034179688, 0.035949707, 7.6293945E-4, 4974365, 0.08392283, -0.009898663, -0.20243883, 0, 0, 0
4943848, -0.036621094, 0.031066895, 0.0044403076, 4943848, -0.0110987425, -0.055360794, -0.034849167, 0, 0, 0
4943847, -0.030517578, 0.031066895, 0.006881714, 4943847, -0.110211104, -0.046705723, 0.040477276, 0, 0, 0
4943848, -0.030517578, 0.028625488, 0.006881714, 4943848, -0.09899345, -0.019266605, 0.07697201, 0, 0, 0
4943848, -0.02684021, -6.866455E-4, 0.010528564, 4943848, -0.076072186, -0.023975372, -0.0033311844, 0, 0, 0
4943847, -0.0549469, -0.0043640137, 0.017868042, 4943847, -0.07529768, -0.06930542, 0.07192469, 0, 0, 0
4943848, -0.05860901, -0.0031280518, 0.016647339, 4943848, -0.08055583, -0.08364344, 0.08790445, 0, 0, 0
4943848, -0.06349182, -0.0019073486, 0.027648926, 4943848, -0.03550279, -0.11655712, 0.105955124, 0, 0, 0
4943847, -0.06716919, 0.011520386, 0.03375244, 4943847, 0.01400879, -0.121100426, 0.12207651, 0, 0, 0
4943848, -0.062286377, 0.027389526, 0.04109192, 4943848, 0.09670806, -0.10820961, 0.04106617, 0, 0, 0
4943848, -0.048843384, 0.044509888, 0.03741455, 4943848, 0.15104142, -0.12454224, 0.0160532, 0, 0, 0
4943847, -0.030517578, 0.034729004, 0.02520752, 4943847, 0.16109744, -0.062347412, -0.012663364, 0, 0, 0
4974365, -0.025634766, 0.023742676, 0.011764526, 4974365, 0.21951303, -0.058820724, -0.05713463, 0, 0, 0
5065918, -0.025634766, 0.004196167, -0.0065460205, 4974365, 0.21951303, -0.058820724, -0.05713463, 0, 0, 0
5035400, -0.03540039, 5.493164E-4, -0.019989014, 6988526, 0.09530419, -0.052776814, -0.020451546, 0, 0, 0
5035401, -0.029281616, -0.005569458, -0.03831482, 5065918, 0.023614317, -0.03138542, -0.00785923, 0, 0, 0
5035401, -0.029281616, -0.005569458, -0.03831482, 5035401, -0.11074969, -0.09611988, 0.09665632, 0, 0, 0
4943848, -0.03540039, -0.0019073486, -0.03831482, 5035401, -0.11074969, -0.09611988, 0.09665632, 0, 0, 0
4943848, -0.03540039, -0.0019073486, -0.03831482, 4943848, -0.13556153, -0.12785482, 0.17075539, 0, 0, 0
4943847, -0.031723022, 0.015197754, -0.03465271, 4943847, -0.12213802, -0.100336075, 0.20309687, 0, 0, 0
4943848, -0.032958984, 0.010314941, -0.02243042, 4943848, -0.075235456, -0.08131027, 0.22035313, 0, 0, 0
4943848, -0.010955811, 0.0029907227, -0.0065460205, 4943848, -0.016766846, -0.04173374, 0.19410467, 0, 0, 0
4913330, -0.0048675537, 0.010314941, 0.0019989014, 4943848, -0.016766846, -0.04173374, 0.19410467, 0, 0, 0
4913330, -0.0048675537, 0.010314941, 0.0019989014, 4913330, 0.08530033, 0.1123786, -0.06546402, 0, 0, 0
4974366, -0.008514404, -0.008010864, 0.0044403076, 4974366, 0.0708026, 0.15738821, -0.11477327, 0, 0, 0
4943847, -0.032958984, -0.005569458, 0.005645752, 4943847, 0.03177446, 0.12517118, -0.1323309, 0, 0, 0
4943848, -0.050048828, 0.012756348, 0.010528564, 4943848, 0.018515855, 0.12370014, -0.094350815, 0, 0, 0
4943847, -0.07815552, 0.09214783, 0.038635254, 4943848, 0.018515855, 0.12370014, -0.094350815, 0, 0, 0
4943848, -0.0867157, 0.12147522, 0.05329895, 4943848, 0.02104026, 0.07919693, -0.17221498, 0, 0, 0
4943848, -0.0867157, 0.12147522, 0.05329895, 4943848, -0.03135723, -0.1521411, -0.28110647, 0, 0, 0
4943848, -0.089157104, 0.15444946, 0.058181763, 4943848, -0.03135723, -0.1521411, -0.28110647, 0, 0, 0
4943848, -0.089157104, 0.15444946, 0.058181763, 4943848, -0.09202951, -0.12233734, -0.31669664, 0, 0, 0
4943848, -0.09037781, 0.15444946, 0.07284546, 4943848, -0.14009425, -0.110284805, -0.34263134, 0, 0, 0
4913331, -0.06838989, 0.14712524, 0.08995056, 4943848, -0.14009425, -0.110284805, -0.34263134, 0, 0, 0
4913331, -0.06838989, 0.14712524, 0.08995056, 4913331, 0.07573065, -0.25770664, -0.25188303, 0, 0, 0
4943848, 0.10140991, 0.57717896, 0.02885437, 4913331, 0.07573065, -0.25770664, -0.25188303, 0, 0, 0
4943848, 0.10140991, 0.57717896, 0.02885437, 4943848, 0.79837364, -0.18623495, -1.1886206, 0, 0, 0
4974365, -0.0390625, 0.35237122, -0.044433594, 4943848, 0.79837364, -0.18623495, -1.1886206, 0, 0, 0
4974365, -0.0390625, 0.35237122, -0.044433594, 4974365, 0.07918936, 0.28983355, -1.0630908, 0, 0, 0
4943847, -0.16856384, 0.15324402, -0.08963013, 4943847, -0.4779999, 0.51591253, -0.63187456, 1, 960, 1181
7049561, -0.25531006, 0.0090789795, -0.08352661, 7049561, -0.6398003, 0.479702, 0.04925251, 0, 0, 0
5035400, -0.302948, -0.09475708, -0.051757813, 5035400, -0.4242195, 0.41604328, 0.8018775, 0, 0, 0
5035401, -0.29318237, -0.20716858, -0.023666382, 5035401, -0.1799629, 0.20568037, 1.3306336, 0, 0, 0
5035400, -0.2662964, -0.30244446, -0.0065460205, 5035400, 0.021534443, 0.07597971, 1.6618752, 0, 0, 0
5035401, -0.20523071, -0.3635254, -0.0041046143, 5035401, 0.17207938, -0.0309968, 1.978457, 0, 0, 0
4974365, -0.14535522, -0.37452698, -0.027313232, 4974365, 0.18201625, -0.040735245, 1.9933934, 0, 0, 0
4913330, -0.07937622, -0.35864258, -0.032196045, 4913330, 0.06771007, -0.16834784, 1.7121038, 0, 0, 0
4943847, -0.032958984, -0.33299255, -0.0309906, 4943847, -0.08425829, -0.3779292, 1.4131136, 0, 0, 0
4943848, 0.035446167, -0.28411865, -0.061523438, 4943848, 0.14609784, -0.6939769, 1.2507825, 0, 0, 0
4943848, 0.10997009, -0.169281, -0.07374573, 4943848, 0.14548913, -0.63331985, 1.1811686, 0, 0, 0
4943847, 0.17227173, -0.015335083, -0.07008362, 4943847, 0.14381632, -0.3985672, 0.8029356, 0, 0, 0
4943848, 0.22480774, 0.10192871, -0.057861328, 4943848, 0.13942811, -0.18089819, 0.11090183, 0, 0, 0
4943848, 0.23580933, 0.15324402, -0.05419922, 4943848, 0.12602505, -0.070724964, -0.5274334, 0, 0, 0
4943847, 0.19915771, 0.13124084, -0.046875, 4943847, 0.100581735, 0.028834343, -0.95429754, 0, 0, 0
4943848, 0.19915771, 0.13124084, -0.063964844, 4943848, 0.090768546, 0.12820053, -1.1107693, 0, 0, 0
4943848, 0.14050293, 0.054275513, -0.063964844, 4943848, 0.051308006, 0.21558571, -0.8955159, 0, 0, 0
4943847, 0.08554077, -0.023895264, -0.08229065, 4943847, -0.081769824, 0.30107307, -0.5346842, 0, 0, 0
4943848, 0.026885986, -0.08987427, -0.063964844, 4943848, -0.114028096, 0.29944134, -0.2960024, 0, 0, 0
4943848, -0.040283203, -0.113082886, -0.021224976, 4943848, -0.15586787, 0.21135283, 0.036325455, 0, 0, 0
4943847, -0.07937622, -0.11552429, 0.008087158, 4943847, -0.13397071, 0.15263796, 0.26479816, 0, 0, 0
4913330, -0.09159851, -0.10820007, 0.015411377, 4913330, -0.053602546, 0.101079464, 0.38345623, 0, 0, 0
4943848, -0.08181763, -0.104537964, 0.023971558, 4943848, 0.030957252, 0.048243046, 0.58886766, 0, 0, 0
5004883, -0.056167603, -0.104537964, 0.026412964, 5004883, 0.079687774, 0.05458641, 0.6493354, 0, 0, 0
4882812, -0.010955811, -0.11552429, 0.030090332, 4882812, 0.04787931, 0.13897896, 0.7136102, 0, 0, 0
4974366, 0.025680542, -0.1350708, 0.027648926, 4974366, 0.052152425, 0.16451883, 0.67399454, 0, 0, 0
4943847, 0.051330566, -0.13874817, 0.030090332, 4943847, 0.041360438, 0.18330479, 0.54584837, 0, 0, 0
4943848, 0.078201294, -0.1375122, 0.026412964, 4943848, 0.051389188, 0.114519596, 0.32586718, 0, 0, 0
7049560, 0.10508728, -0.124069214, 0.016647339, 7049560, 0.07322827, -0.011488438, 0.0734334, 0, 0, 0
5035401, 0.118515015, -0.09475708, 0.012969971, 5035401, 0.03899643, -0.06722069, -0.14350462, 0, 0, 0
5035400, 0.10874939, -0.05444336, 0.0044403076, 5035400, 0.04449284, -0.16765928, -0.26545048, 0, 0, 0
5004883, 0.1124115, -0.016571045, 0.008087158, 5004883, 0.08964452, -0.16024351, -0.43215132, 0, 0, 0
4974366, 0.102645874, 0.026184082, -4.5776367E-4, 5004883, 0.08964452, -0.16024351, -0.43215132, 0, 0, 0
4974366, 0.102645874, 0.026184082, -4.5776367E-4, 4974366, 0.21683592, -0.06743622, -0.5492711, 0, 0, 0
4943847, 0.09286499, 0.06159973, 0.008087158, 4943847, 0.21126562, -0.0047078133, -0.58762646, 0, 0, 0
4943848, 0.07209778, 0.07748413, -0.001663208, 4943848, 0.23025563, 0.0320096, -0.64792204, 0, 0, 0
4943848, 0.051330566, 0.099487305, -0.0041046143, 4943848, 0.2466293, -0.0152516365, -0.59417963, 0, 0, 0
4943848, 0.013442993, 0.08482361, -0.011428833, 4943848, 0.2466293, -0.0152516365, -0.59417963, 0, 0, 0
4943848, 0.013442993, 0.08482361, -0.011428833, 4943848, 0.19832629, -0.0242877, -0.3180561, 0, 0, 0
4943847, -0.028076172, 0.06893921, -0.028549194, 4943848, 0.19832629, -0.0242877, -0.3180561, 0, 0, 0
4943847, -0.028076172, 0.06893921, -0.028549194, 4943847, 0.03401321, -0.110871315, 0.05254984, 0, 0, 0
4943848, -0.012191772, 0.03718567, -0.02243042, 4943847, 0.03401321, -0.110871315, 0.05254984, 0, 0, 0
4943848, -0.012191772, 0.03718567, -0.02243042, 4943848, 0.006396681, -0.16315937, 0.22827625, 0, 0, 0
4943848, 0.00491333, -0.019012451, -0.041992188, 4943848, 0.006396681, -0.16315937, 0.22827625, 0, 0, 0
4943848, 0.022003174, -0.03855896, -0.041992188, 4943847, -0.04652956, -0.18561268, 0.2719612, 0, 0, 0
4943847, 0.044006348, -0.03366089, -0.04319763, 4943848, -0.08413166, -0.18052006, 0.3126402, 0, 0, 0
4943848, 0.05987549, -0.021453857, -0.03831482, 4943848, -0.12071124, -0.18886566, 0.23216057, 0, 0, 0
4943848, 0.05987549, -0.021453857, -0.03831482, 4943848, -0.1458255, -0.24076033, 0.1333046, 0, 0, 0
4943847, 0.05987549, 0.016403198, -0.0077819824, 4943848, -0.1458255, -0.24076033, 0.1333046, 0, 0, 0
4943848, 0.065979004, 0.02494812, -0.001663208, 4943848, -0.1077992, -0.23393154, -0.0021715164, 0, 0, 0
4943848, 0.067214966, 0.022506714, 0.005645752, 4943847, -0.038614243, -0.19895077, -0.04263115, 0, 0, 0
4943848, 0.067214966, 0.022506714, 0.005645752, 4943848, 0.071704686, -0.114313126, -0.34094477, 0, 0, 0
4943847, 0.057434082, 0.0335083, 0.0032043457, 4943847, 0.13449618, -0.0029911995, -0.4245, 0, 0, 0
4943847, 0.0476532, 0.046951294, 0.0044403076, 4943847, 0.13449618, -0.0029911995, -0.4245, 0, 0, 0
4943847, 0.0476532, 0.046951294, 0.0044403076, 4943847, 0.10803193, -0.011670113, -0.38917017, 0, 0, 0
7019043, 0.013442993, 0.06283569, 7.6293945E-4, 7019043, 0.118560165, 5.1164627E-4, -0.37343216, 0, 0, 0
5065918, -0.008514404, 0.05671692, -0.001663208, 5065918, 0.10916692, -0.009495258, -0.31021547, 0, 0, 0
5035401, -0.03540039, 0.044509888, -0.0065460205, 5035401, 0.10633138, -0.06655979, -0.12841749, 0, 0, 0
5035400, -0.046401978, 0.039627075, -0.008987427, 5035400, -0.018707186, -0.05686426, 0.047097683, 0, 0, 0
5035401, -0.03540039, 0.020065308, -0.019989014, 5035401, -0.13758966, -0.10098791, 0.23378849, 0, 0, 0
4943847, -0.031723022, 0.012756348, -0.0077819824, 4943847, -0.26895922, -0.18420124, 0.2718134, 0, 0, 0
4943848, -0.012191772, 0.007873535, -0.0041046143, 4943848, -0.28413773, -0.26992273, 0.30906153, 0, 0, 0
4913330, 0.0024719238, 0.004196167, 0.00932312, 4913330, -0.23620954, -0.27576923, 0.32612467, 0, 0, 0
4974365, 0.019561768, -0.0043640137, 0.015411377, 4974365, -0.17049679, -0.21857357, 0.30152082, 0, 0, 0
4943848, 0.029327393, -0.0104522705, 0.020324707, 4943848, -0.13046587, -0.12281418, 0.14276648, 0, 0, 0
4943848, 0.042770386, -0.021453857, 0.016647339, 4943848, -0.07117832, -0.090611935, 0.013902187, 0, 0, 0
4943847, 0.044006348, -0.025131226, 0.017868042, 4943847, -0.006764233, -0.05701399, -0.069561005, 0, 0, 0
4943848, 0.044006348, -0.025131226, 0.021530151, 4943848, 0.062024713, -0.019038677, -0.13067675, 0, 0, 0
4943848, 0.037887573, -0.014129639, 0.021530151, 4943848, 0.10927597, 0.057492256, -0.24815464, 0, 0, 0
4943847, 0.009796143, -0.009246826, 0.010528564, 4943847, 0.13813049, 0.08149052, -0.279274, 0, 0, 0
4943848, -0.031723022, -0.0019073486, 0.019088745, 4943848, 0.10723266, 0.09062767, -0.18526173, 0, 0, 0
4943847, -0.056167603, 0.018859863, 0.012969971, 4943847, 0.045983583, -0.017373562, -0.034850597, 0, 0, 0
4943848, -0.059829712, 0.03718567, 0.02520752, 4943848, -0.007849842, -0.118103504, 0.04028082, 0, 0, 0
4943848, -0.057388306, 0.059158325, 0.036193848, 4943848, -0.023736656, -0.17855835, -0.010277748, 0, 0, 0
4943847, -0.056167603, 0.066482544, 0.052078247, 4943847, -0.024617106, -0.21521664, -0.17877722, 0, 0, 0
4943848, -0.0549469, 0.07015991, 0.05329895, 4943848, -0.03115815, -0.21522045, -0.2588625, 0, 0, 0
4943848, -0.045166016, 0.075042725, 0.054519653, 4943848, 0.021635711, -0.15444994, -0.33828163, 0, 0, 0
4943847, -0.048843384, 0.07992554, 0.05329895, 4943847, 0.01909116, -0.086660385, -0.42117786, 0, 0, 0
4943848, -0.048843384, 0.08482361, 0.06062317, 4943848, -0.14530703, -0.13137722, -0.38007784, 0, 0, 0
4943848, -0.04272461, 0.07992554, 0.078948975, 4943848, -0.08876696, -0.12542057, -0.29720402, 0, 0, 0
4943847, -0.036621094, 0.060394287, 0.08262634, 4943847, 0.029980749, -0.097197056, -0.33193254, 0, 0, 0
4943848, -0.036621094, 0.051834106, 0.078948975, 4943848, 0.116814464, -0.28411055, -0.036582947, 0, 0, 0
7049561, 0.042770386, 0.30229187, 0.05329895, 7049561, 0.57982105, -0.27050543, -0.81773806, 0, 0, 0
5035400, 0.1270752, 0.45376587, 0.020324707, 5035400, 0.36917776, -0.00799036, -0.6986499, 0, 0, 0
5035400, 0.083099365, 0.3242798, -0.0065460205, 5035400, -0.140939, 0.38507223, -0.4373517, 0, 0, 0
5035400, -0.072052, 0.016403198, -0.049316406, 5035400, -0.140939, 0.38507223, -0.4373517, 1, 958, 1183
5035400, -0.072052, 0.016403198, -0.049316406, 5035400, -0.59002244, 0.37752056, -0.22381449, 0, 0, 0
4943848, -0.13313293, -0.019012451, -0.011428833, 4943848, -0.22153476, 0.2876439, 0.30085373, 0, 0, 0
4943847, -0.18566895, -0.049545288, 0.021530151, 4943847, 0.037864268, 0.23474741, 0.67806244, 0, 0, 0
4943848, -0.19055176, -0.08253479, 0.03253174, 4943848, 0.23113373, 0.18852663, 0.9521947, 0, 0, 0
4943848, -0.16366577, -0.13018799, 0.04473877, 4943848, 0.38571846, 0.17554188, 1.2139692, 0, 0, 0
4913330, -0.11602783, -0.15707397, 0.027648926, 4913330, 0.47871006, 0.17124844, 1.2033505, 0, 0, 0
4943848, -0.02684021, -0.1986084, -0.021224976, 4913330, 0.47871006, 0.17124844, 1.2033505, 0, 0, 0
4943848, -0.02684021, -0.1986084, -0.021224976, 4943848, 0.23385149, -0.10775471, 0.81947994, 0, 0, 0
4943847, -0.0024261475, -0.22793579, -0.048080444, 4943847, 0.08813265, -0.25943708, 0.5965915, 0, 0, 0
4943848, 0.0036773682, -0.24990845, -0.056640625, 4943848, 0.3281219, -0.8732915, 0.58196926, 0, 0, 0
4943848, 1.5258789E-5, -0.2303772, -0.05908203, 4943848, 0.061113, -0.88200617, 0.56888866, 0, 0, 0
4943847, 0.009796143, -0.113082886, -0.05419922, 4943847, -0.21837047, -0.2964573, 0.4760337, 0, 0, 0
4943848, 0.0806427, 0.12757874, -0.032196045, 4943847, -0.21837047, -0.2964573, 0.4760337, 0, 0, 0
4943848, 0.0806427, 0.12757874, -0.032196045, 4943848, -0.02897352, 0.3506384, -0.040246487, 0, 0, 0
4943848, 0.07331848, 0.0652771, -0.068862915, 4943848, -0.02897352, 0.3506384, -0.040246487, 0, 0, 0
4913330, 0.08430481, -0.04222107, -0.084732056, 4943847, -0.03049314, 0.299613, -0.40686035, 0, 0, 0
4974365, 0.06965637, -0.10942078, -0.09939575, 4943848, -0.053702176, 0.18039703, -0.40360403, 0, 0, 0
4974365, 0.06965637, -0.10942078, -0.09939575, 4974365, -0.0051234663, -0.0017943382, -0.11786413, 0, 0, 0
4943848, 0.0476532, -0.1191864, -0.09939575, 4943848, -0.08695942, -0.03857231, 0.021579742, 0, 0, 0
4943847, 0.037887573, -0.11430359, -0.045639038, 4943848, -0.08695942, -0.03857231, 0.021579742, 0, 0, 0
4943848, 0.0012359619, -0.092315674, -0.045639038, 4943848, -0.18866754, -0.10647011, 0.120138645, 0, 0, 0
4943848, 0.0012359619, -0.092315674, -0.045639038, 4943848, -0.09724671, -0.03249359, 0.15626192, 0, 0, 0
5249023, -0.025634766, -0.07765198, -0.023666382, 5249023, -0.02404192, 0.026871681, 0.25015783, 0, 0, 0
6744385, -0.048843384, -0.08131409, 0.005645752, 6744385, -0.003996998, 0.1261611, 0.37972164, 0, 0, 0
5035401, -0.037841797, -0.08621216, 0.016647339, 5035401, -0.0249196, 0.1654315, 0.3915205, 0, 0, 0
5035400, -0.025634766, -0.09353638, 0.012969971, 5035400, 0.04481682, 0.1473794, 0.40191603, 0, 0, 0
5035400, -0.008514404, -0.07398987, -0.0065460205, 5035400, 0.075886816, 0.14383602, 0.2887349, 0, 0, 0
5035401, 0.017120361, -0.05810547, -0.005340576, 5035401, 0.0601106, 0.12048197, 0.23063087, 0, 0, 0
4943847, 0.035446167, -0.041000366, -0.00289917, 4943847, 0.023026675, 0.01302433, 0.16002607, 0, 0, 0
4943848, 0.04888916, -0.020233154, -0.0077819824, 4943848, 0.012696564, -0.0866127, 0.1332922, 0, 0, 0
4943848, 0.058654785, -0.0043640137, -0.005340576, 4943848, -7.2821975E-4, -0.1473403, 0.07278204, 0, 0, 0
4943847, 0.062332153, 0.010314941, -0.005340576, 4943847, -0.025926739, -0.175704, 0.018250465, 0, 0, 0
4913330, 0.058654785, 0.010314941, -0.0065460205, 4913330, -0.016535968, -0.21885967, -0.023163795, 0, 0, 0
4974366, 0.058654785, 0.02130127, -0.0065460205, 4974366, -0.026020586, -0.18246317, -0.0956049, 0, 0, 0
4943847, 0.062332153, 0.011520386, -0.005340576, 4943847, -0.008537173, -0.106285095, -0.17878723, 0, 0, 0
4943848, 0.05621338, 0.0066375732, -0.0065460205, 4943848, 0.04448223, -0.09982014, -0.23225689, 0, 0, 0
4943848, 0.051330566, 0.012756348, 0.00932312, 4943848, 0.08427882, -0.10805988, -0.20467472, 0, 0, 0
4943847, 0.051330566, 0.015197754, 0.012969971, 4943847, 0.09370202, -0.07993698, -0.054534435, 0, 0, 0
4943848, 0.05255127, 0.023742676, 0.010528564, 4943848, 0.12690523, -0.048611164, -0.06536198, 0, 0, 0
4943848, 0.05621338, 0.026184082, 0.005645752, 4943848, 0.13849857, -0.07237053, -0.053597927, 0, 0, 0
4943847, 0.058654785, 0.034729004, 0.0019989014, 4943847, 0.13450176, -0.053313732, -0.040572643, 0, 0, 0
4943848, 0.05255127, 0.038391113, -0.00289917, 4943848, 0.08523935, -0.060162544, -0.025947094, 0, 0, 0
4943848, 0.058654785, 0.026184082, 0.0044403076, 4943848, 0.07393813, -0.057662487, -0.08181381, 0, 0, 0
4943847, 0.051330566, 0.02130127, -0.00289917, 4943847, 0.13981804, -0.047219753, -0.16097403, 0, 0, 0
4943848, 0.030563354, 0.02130127, -0.001663208, 4943848, 0.20569915, -0.06610823, -0.1459055, 0, 0, 0
4943848, 0.034225464, 0.012756348, -0.012664795, 4943848, 0.1396926, -0.087228775, -0.107244015, 0, 0, 0
4943847, 0.029327393, 0.016403198, -0.023666382, 4943847, 0.044029593, -0.1330452, -0.15777493, 0, 0, 0
4943848, 0.023239136, 0.020065308, -0.021224976, 4943848, -0.01356858, -0.18159342, -0.11518288, 0, 0, 0
4943847, 0.012237549, 0.018859863, -0.0077819824, 4943847, -0.075484425, -0.2345705, -0.048885345, 0, 0, 0
4943848, -0.0048675537, 0.012756348, -0.010223389, 4943848, -0.095630854, -0.2388649, -0.023582935, 0, 0, 0
5035400, -0.009750366, -0.009246826, -0.017547607, 4943848, -0.095630854, -0.2388649, -0.023582935, 0, 0, 0
5035400, -0.012191772, -0.031219482, -0.008987427, 7049561, -0.08634892, -0.19931364, 0.004228115, 0, 0, 0
5035400, -0.012191772, -0.031219482, -0.008987427, 5035400, 0.025963575, -0.12411833, -0.008152485, 0, 0, 0
5035400, -0.0011901855, -0.00680542, -0.00289917, 5035400, 0.025963575, -0.12411833, -0.008152485, 0, 0, 0
4943848, -0.0036315918, 0.010314941, -0.0077819824, 5035401, 0.12926856, -0.09408283, -0.05237198, 0, 0, 0
4943848, -0.0036315918, 0.010314941, -0.0077819824, 4943848, 0.15137509, -0.06526041, -0.1761117, 0, 0, 0
4943847, -0.012191772, 0.016403198, -0.0065460205, 4943848, 0.15137509, -0.06526041, -0.1761117, 0, 0, 0
4943848, -0.012191772, 0.0090789795, 0.0044403076, 4943848, 0.067584455, -0.008430004, -0.121860504, 0, 0, 0
5157471, -0.013397217, 0.015197754, 0.005645752, 4943847, -0.0071914494, -0.053615093, -0.0544672, 0, 0, 0
4730224, -0.018295288, 0.0029907227, 0.015411377, 4943848, -0.05889201, -0.13080263, 0.073419094, 0, 0, 0
4943848, -0.012191772, 0.004196167, 0.012969971, 5157471, -0.06796026, -0.081391335, 0.10014725, 0, 0, 0
4943847, -0.012191772, 0.0029907227, 0.020324707, 4730224, -0.043925285, -0.073318005, 0.11507511, 0, 0, 0
4943848, -0.008514404, 0.020065308, 0.022766113, 4943848, 0.04707682, -0.111786366, 0.20483017, 0, 0, 0
4943848, -0.008514404, 0.02494812, 0.015411377, 4943847, 0.094044596, -0.11164808, 0.18935442, 0, 0, 0
4943847, -0.013397217, 0.028625488, 0.00932312, 4943848, 0.107016385, -0.08056307, 0.1987729, 0, 0, 0
4943847, -0.013397217, 0.028625488, 0.00932312, 4943847, 0.07416135, -0.11778784, 0.16894102, 0, 0, 0
4943848, 0.012237549, 0.029830933, 0.0019989014, 4943847, 0.07416135, -0.11778784, 0.16894102, 0, 0, 0
4943847, 0.008560181, 0.034729004, 0.008087158, 4943848, 0.03838575, -0.16622972, 0.13859081, 0, 0, 0
4943848, 0.014678955, 0.028625488, 0.0019989014, 4943848, 0.04167077, -0.16691494, 0.091813564, 0, 0, 0
4943848, 0.014678955, 0.028625488, 0.0019989014, 4943848, 0.025836438, -0.12436819, 0.06480551, 0, 0, 0
4943848, 0.0073547363, 0.023742676, 0.0044403076, 4943848, 0.018553078, -0.08293581, 0.04508066, 0, 0, 0
4943848, 0.0024719238, 0.023742676, -0.0041046143, 4943848, 0.018553078, -0.08293581, 0.04508066, 0, 0, 0
4943848, 0.013442993, 0.0335083, -0.00289917, 4943847, 7.0133805E-4, -0.059716225, -0.009879589, 0, 0, 0
4943847, 0.0012359619, 0.022506714, -0.0065460205, 4943848, 0.0038727522, -0.049278736, -0.08235645, 0, 0, 0
4943847, 0.0012359619, 0.022506714, -0.0065460205, 4943847, -0.026596725, -0.055998325, -0.121101856, 0, 0, 0
4943848, -0.009750366, 0.0017547607, -0.011428833, 4943848, -0.05086726, -0.042265415, -0.07201958, 0, 0, 0
4943848, 0.011001587, -0.0031280518, -0.0065460205, 4943848, -0.075722724, -0.0026512146, -0.048341274, 0, 0, 0
7049560, -0.031723022, -0.0043640137, 0.0019989014, 7049560, -0.09557432, -0.0069589615, -0.035199642, 0, 0, 0
5035401, -0.0390625, -0.0031280518, 0.006881714, 5035401, -0.073013395, 0.013028145, -0.02758789, 0, 0, 0
5035400, -0.059829712, -0.00680542, 0.0019989014, 5035400, 0.009268433, 0.056399822, -0.030036926, 0, 0, 0
5035400, -0.09159851, 0.0066375732, 0.012969971, 5035400, 0.07037765, 0.09414768, 0.0059127808, 0, 0, 0
5035401, -0.105041504, 0.045715332, 0.030090332, 5035401, 0.02593553, 0.060728073, 0.055674076, 0, 0, 0
4943847, -0.09526062, 0.10192871, 0.06185913, 4943847, -0.03382629, -0.049884796, 0.0051193237, 0, 0, 0
4943848, -0.080596924, 0.15200806, 0.078948975, 4943848, -0.024331272, -0.16200733, -0.12038517, 0, 0, 0
4943848, -0.080596924, 0.15200806, 0.08262634, 4943848, 0.01116097, -0.26506948, -0.27453375, 0, 0, 0
4943847, -0.061050415, 0.18621826, 0.08262634, 4943847, -0.04674363, -0.3209777, -0.43596506, 0, 0, 0
4943848, -0.062286377, 0.19110107, 0.087509155, 4943848, -0.22133759, -0.31920958, -0.44428015, 0, 0, 0
4943848, -0.046401978, 0.17889404, 0.10461426, 4943848, -0.2328729, -0.2474904, -0.43744755, 0, 0, 0
4943847, -0.037841797, 0.17156982, 0.12416077, 4943847, -0.053964198, -0.13421488, -0.49874258, 0, 0, 0
4943848, -0.010955811, 0.19598389, 0.13148499, 4943848, 0.35352385, -0.2979765, -0.13771105, 0, 0, 0
4943848, 0.1270752, 0.5930481, 0.08628845, 4943848, 0.6485549, -0.013286114, -0.5804782, 0, 0, 0
4943847, 0.18083191, 0.733551, 0.05696106, 4943847, 0.9359156, -0.05639696, -1.8092141, 0, 0, 0
4913330, 0.0965271, 0.5673981, 0.021530151, 4913330, 0.8132715, 0.2641039, -1.8933878, 0, 0, 0
4974366, -0.053726196, 0.3096161, -0.040756226, 4974366, 0.16426817, 0.56271315, -1.480895, 1, 953, 1207
4943847, -0.20523071, 0.08848572, -0.06640625, 4943847, -0.47055054, 0.44738388, -0.8514347, 0, 0, 0
4943848, -0.3310547, -0.056884766, -0.06764221, 4943848, -0.3707557, 0.1304965, 0.118611336, 0, 0, 0
4943848, -0.40924072, -0.16316223, -0.04319763, 4943848, -0.21904239, 0.03094101, 1.1335821, 0, 0, 0
4943847, -0.42390442, -0.26823425, -0.039535522, 4943847, -0.16068348, -0.046703815, 1.7843919, 0, 0, 0
4943848, -0.39215088, -0.35253906, -0.027313232, 4943848, -0.10307145, -0.0678277, 2.221521, 0, 0, 0
4943848, -0.34327698, -0.41973877, -0.019989014, 4943848, -0.22576329, -0.1305809, 2.3585358, 0, 0, 0
4943847, -0.26753235, -0.45515442, -0.001663208, 4943847, -0.44193512, -0.08789492, 2.4548426, 0, 0, 0
4943848, -0.17710876, -0.41241455, -0.012664795, 4943848, -0.1398595, -0.42752314, 2.5618386, 0, 0, 0
4943848, -0.03540039, -0.25846863, -0.057861328, 4943848, 0.1611686, -0.6452217, 2.4183517, 0, 0, 0
4943847, 0.13439941, -0.0104522705, -0.09207153, 4943847, 0.4396691, -0.54859304, 2.054512, 0, 0, 0
7049561, 0.27612305, 0.2191925, -0.11528015, 7049561, 0.6838486, -0.27007627, -0.0047917366, 0, 0, 0
5035400, 0.36775208, 0.33650208, -0.14460754, 5035400, 0.4556121, -0.17948008, -1.2521377, 0, 0, 0
5035401, 0.3567505, 0.35237122, -0.16781616, 5035401, 0.18680897, -0.07854414, -2.0418773, 0, 0, 0
5035400, 0.28590393, 0.28884888, -0.17758179, 5035400, -0.08601722, -0.0029888153, -2.2633066, 0, 0, 0
5035400, 0.1783905, 0.18377686, -0.17637634, 5035400, -0.29582083, 0.21140432, -2.008912, 0, 0, 0
4974366, -0.12458801, -0.02267456, -0.14460754, 5035400, -0.29582083, 0.21140432, -2.008912, 0, 0, 0
4943847, -0.23820496, -0.09475708, -0.10551453, 4913330, -0.35781357, 0.35373735, -1.3947139, 0, 0, 0
4943848, -0.29930115, -0.12286377, -0.07008362, 4974366, -0.4341365, 0.33111286, -0.69274855, 0, 0, 0
4943848, -0.29930115, -0.12286377, -0.07008362, 4943848, -0.18031567, -0.0511117, 0.75558186, 0, 0, 0
4943847, -0.28341675, -0.12896729, -0.017547607, 4943848, -0.18031567, -0.0511117, 0.75558186, 0, 0, 0
4943847, -0.28341675, -0.12896729, -0.017547607, 4943847, -0.23069602, -0.12993813, 1.7243452, 0, 0, 0
4943848, -0.21376038, -0.124069214, 0.0044403076, 4943848, -0.2795421, -0.038345337, 1.8653922, 0, 0, 0
4943848, -0.11968994, -0.12651062, 0.030090332, 4943848, -0.22393787, 0.13131046, 1.8419218, 0, 0, 0
4943847, -0.012191772, -0.14483643, 0.048416138, 4943847, -0.09048176, 0.2272892, 1.6039672, 0, 0, 0
4943848, 0.1282959, -0.15707397, 0.06550598, 4943847, -0.09048176, 0.2272892, 1.6039672, 0, 0, 0
4943847, 0.15394592, -0.14483643, 0.05329895, 4943848, 0.011388093, 0.2487545, 1.1716771, 0, 0, 0
4943847, 0.15394592, -0.14483643, 0.05329895, 4943847, 0.048695475, 0.15414715, 0.2996068, 0, 0, 0
4943848, 0.1625061, -0.1179657, 0.049621582, 4943848, 0.012741804, 0.047194958, -0.10399294, 0, 0, 0
4943848, 0.14050293, -0.07521057, 0.038635254, 4943848, 0.03590226, -0.057463646, -0.2996869, 0, 0, 0
4943847, 0.14050293, -0.07521057, 0.034973145, 4943847, 0.120346874, -0.16347742, -0.5079398, 0, 0, 0
4943847, 0.06965637, 0.015197754, 0.038635254, 4943847, 0.120346874, -0.16347742, -0.5079398, 0, 0, 0
4943848, 0.023239136, 0.045715332, 0.050857544, 4943848, 0.14770195, -0.18189812, -0.6080103, 0, 0, 0
4943848, -0.009750366, 0.06893921, 0.047180176, 4943847, 0.18795365, -0.18798685, -0.5665798, 0, 0, 0
4943847, -0.028076172, 0.08482361, 0.030090332, 4943848, 0.26953134, -0.12722254, -0.37310982, 0, 0, 0
4943848, -0.031723022, 0.083602905, 0.006881714, 4943848, 0.40396217, 7.634163E-4, -0.2126832, 0, 0, 0
4943848, -0.031723022, 0.083602905, 0.006881714, 4943848, 0.46551862, 0.12577915, 0.18548107, 0, 0, 0
4943848, -0.034179688, 0.06283569, -0.0077819824, 4943848, 0.34199536, 0.09736967, 0.24043989, 0, 0, 0
7049560, -0.020751953, 0.035949707, -0.05419922, 7049560, 0.19908512, -0.018657207, 0.21572447, 0, 0, 0
5035401, -0.0048675537, 0.04206848, -0.061523438, 5035401, 0.051674545, -0.0903492, 0.24591923, 0, 0, 0
5035400, 0.009796143, 0.035949707, -0.05052185, 5035400, -0.008863598, -0.18271875, 0.14171743, 0, 0, 0
5035400, 0.0061187744, 0.03227234, -0.037094116, 5035400, -0.06296888, -0.24562883, 0.09684181, 0, 0, 0
5035401, 0.014678955, 0.026184082, -0.028549194, 5035401, -0.07507223, -0.24963903, 0.055561066, 0, 0, 0
4943848, 0.014678955, 0.026184082, -0.028549194, 4943848, -0.123351395, -0.18162155, 0.023773193, 0, 0, 0
4943847, 0.018341064, 0.026184082, -0.028549194, 4943847, -0.17909867, -0.16349459, 0.091824055, 0, 0, 0
4943848, 0.03666687, 0.02130127, -0.021224976, 4943848, -0.2105569, -0.18845177, 0.2272911, 0, 0, 0
4943848, 0.05987549, 0.010314941, -0.033432007, 4943848, -0.25248036, -0.18056583, 0.2942338, 0, 0, 0
4943847, 0.067214966, -0.019012451, -0.041992188, 4943847, -0.28044522, -0.16522598, 0.29644728, 0, 0, 0
4943848, 0.0818634, -0.032455444, -0.039535522, 4943848, -0.23779532, -0.16478777, 0.27204132, 0, 0, 0
4943847, 0.0818634, -0.03489685, -0.01876831, 4943847, -0.11657563, -0.17907763, 0.26329088, 0, 0, 0
4943848, 0.09164429, -0.030014038, -4.5776367E-4, 4943848, 0.039274782, -0.12940359, 0.11695051, 0, 0, 0
4943848, 0.0953064, -0.032455444, -0.00289917, 4943848, 0.1910165, -0.058081627, -0.07284546, 0, 0, 0
4943847, 0.0953064, -0.021453857, 0.014205933, 4943847, 0.21253282, -0.07426643, -0.14552546, 0, 0, 0
4913331, 0.083099365, -0.017791748, 0.0044403076, 4913331, 0.17886731, -0.06845999, -0.14671516, 0, 0, 0
4943847, 0.0818634, -0.015335083, 0.00932312, 4943847, 0.13218945, -0.01658392, -0.18963957, 0, 0, 0
4974365, 0.06477356, -0.012893677, 0.006881714, 4974365, 0.11312127, -0.063088894, -0.2677412, 0, 0, 0
4974366, 0.04888916, -0.008010864, -0.0041046143, 4974366, 0.123668164, -0.042271137, -0.32255268, 0, 0, 0
4913330, 0.039108276, 0.0066375732, -0.010223389, 4913330, 0.17910075, -0.024605751, -0.4078989, 0, 0, 0
4913330, 0.013442993, 0.022506714, -0.005340576, 4913330, 0.17119879, -0.10761881, -0.41944742, 0, 0, 0
4974365, -0.028076172, 0.038391113, -4.5776367E-4, 4974365, 0.16224244, -0.11206913, -0.25899792, 0, 0, 0
4943848, -0.040283203, 0.03227234, -4.5776367E-4, 4943848, 0.1527305, -0.13032818, -0.18415737, 0, 0, 0
4943847, -0.045166016, 0.0335083, 0.0032043457, 4943847, 0.05950111, -0.15900135, -0.019758224, 0, 0, 0
4943848, -0.0390625, 0.034729004, -0.017547607, 4943848, -0.039346635, -0.13733387, 0.13272238, 0, 0, 0
4943848, -0.032958984, 0.04206848, -0.016311646, 4943848, -0.053048342, -0.15029383, 0.15088367, 0, 0, 0
4943847, -0.02684021, 0.045715332, -0.0077819824, 4943847, -0.09893677, -0.21420813, 0.20631266, 0, 0, 0
7049561, -0.015838623, 0.028625488, -0.00289917, 7049561, -0.087040275, -0.20018959, 0.28165722, 0, 0, 0
5004883, 0.02079773, 0.013961792, 7.6293945E-4, 5004883, -0.08086404, -0.22049093, 0.21487856, 0, 0, 0
5035400, 0.04032898, 0.0090789795, 0.011764526, 5004883, -0.08086404, -0.22049093, 0.21487856, 0, 0, 0
5004883, 0.042770386, 0.020065308, 0.014205933, 5065918, -0.059259593, -0.18403244, 0.10636568, 0, 0, 0
4974365, 0.04032898, 0.022506714, 0.00932312, 5035400, 0.041642785, -0.11205053, -0.00309515, 0, 0, 0
4974365, 0.04032898, 0.022506714, 0.00932312, 4974365, 0.062549025, -0.05518198, -0.1856761, 0, 0, 0
4943848, 0.03666687, 0.016403198, 0.008087158, 4943848, 0.0434058, -0.0593462, -0.20257378, 0, 0, 0
4943847, 0.023239136, 0.017623901, -4.5776367E-4, 4943847, -0.002823323, -0.11336708, -0.12135553, 0, 0, 0
4943848, 0.0012359619, -0.0019073486, -0.011428833, 4943848, -0.057810992, -0.098425865, -0.08524752, 0, 0, 0
4943847, -0.029281616, -0.02267456, -0.015106201, 4943848, -0.057810992, -0.098425865, -0.08524752, 0, 0, 0
4943848, -0.048843384, -0.021453857, -0.008987427, 4943848, -0.076491386, -0.08752632, -0.044414997, 0, 0, 0
4943848, -0.0708313, 5.493164E-4, 0.0032043457, 4943847, -0.05816084, 0.0036716461, 0.02919674, 0, 0, 0
4943847, -0.06593323, 0.023742676, 0.020324707, 4943848, -0.08550906, -0.0019636154, 0.06815052, 0, 0, 0
4943847, -0.06593323, 0.023742676, 0.020324707, 4943847, -0.1914658, -0.047465324, 0.1520133, 0, 0, 0
4913330, -0.024398804, 0.046951294, 0.058181763, 4943847, -0.1914658, -0.047465324, 0.1520133, 0, 0, 0
4913330, -0.024398804, 0.046951294, 0.058181763, 4913330, -0.00549376, -0.17161608, 0.04109907, 0, 0, 0
4974365, -0.00730896, 0.043273926, 0.06550598, 4974365, 0.103666544, -0.12487745, -0.019692421, 0, 0, 0
4943848, -0.008514404, 0.029830933, 0.06674194, 4974365, 0.103666544, -0.12487745, -0.019692421, 0, 0, 0
4943847, 0.0036773682, 0.028625488, 0.063064575, 4943848, 0.06194687, -0.10324001, -0.047874928, 0, 0, 0
4913330, 0.0158844, 0.03227234, 0.08628845, 4943848, -0.17833218, -0.061798096, -0.05571127, 0, 0, 0
4974366, 0.0317688, 0.046951294, 0.119262695, 4943847, -0.23563272, -0.11380005, -0.08208847, 0, 0, 0
4943847, 0.03666687, 0.054275513, 0.13148499, 4913330, -0.102487475, -0.14645863, -0.3114853, 0, 0, 0
4943848, 0.04032898, 0.026184082, 0.119262695, 4974366, 0.061949044, -0.19752693, -0.39661646, 0, 0, 0
4943848, 0.02079773, -0.0043640137, 0.09605408, 4943847, 0.21790582, -0.2019968, -0.38811874, 0, 0, 0
4943847, -0.008514404, -0.023895264, 0.08016968, 4943848, 0.22955069, -0.0992136, -0.4069276, 0, 0, 0
4943847, -0.008514404, -0.023895264, 0.08016968, 4943847, 0.19482195, -0.0025763512, -0.4572835, 0, 0, 0
4943848, -0.045166016, -0.014129639, 0.06550598, 4943848, 0.26378208, 0.07538223, -0.42662573, 0, 0, 0
7049560, -0.13435364, 0.027389526, 0.07040405, 7049560, 0.30262125, 0.09064484, -0.3514676, 0, 0, 0
5035401, -0.13435364, 0.07992554, 0.06918335, 5035401, 0.30087155, 0.09418535, -0.26914597, 0, 0, 0
5035400, -0.14413452, 0.22654724, 0.06918335, 5035400, 0.5689449, -0.07950783, -0.29902983, 0, 0, 0
5035401, -0.13435364, 0.3132782, 0.05329895, 5035401, 0.44392014, -0.17042542, -0.12638807, 0, 0, 0
5004882, -0.15513611, 0.2191925, 0.02520752, 5004882, 0.05981967, -0.14892673, 0.48282146, 1, 956, 1149
4943848, -0.15757751, 0.0652771, 0.00932312, 4943848, -0.36114335, 0.0094714165, 0.87345266, 0, 0, 0
4974365, -0.12825012, -0.037338257, 0.00932312, 4974365, -0.4758033, 0.05215168, 1.0193892, 0, 0, 0
4943848, -0.09648132, -0.08131409, 0.02885437, 4943848, -0.2840697, -0.057891846, 1.0564656, 0, 0, 0
4943848, -0.0708313, -0.10820007, 0.04473877, 4943848, -0.072576374, -0.124884605, 1.047854, 0, 0, 0
4669190, -0.031723022, -0.182724, 0.03375244, 4943848, -0.072576374, -0.124884605, 1.047854, 0, 0, 0
4669190, -0.031723022, -0.182724, 0.03375244, 4669190, -0.0358828, -0.012691021, 0.89501905, 0, 0, 0
4943848, 0.018341064, -0.16560364, 0.014205933, 4943848, 0.15672988, -0.17895794, 0.7775569, 0, 0, 0
4943847, 0.05255127, -0.09719849, -0.011428833, 4943847, 0.21740028, -0.35492373, 0.56020737, 0, 0, 0
4943848, 0.0818634, -0.027572632, -0.055419922, 4943848, 0.2565527, -0.39237976, 0.3224206, 0, 0, 0
4943848, 0.10630798, 0.004196167, -0.088409424, 4943848, 0.19232103, -0.34089518, 0.1030345, 0, 0, 0
4943847, 0.11973572, 0.0066375732, -0.10551453, 4943847, 0.080595165, -0.23263836, 0.047288418, 0, 0, 0
4943848, 0.122177124, -0.012893677, -0.11894226, 4943848, -0.17220905, -0.14409447, 0.060275555, 0, 0, 0
4943848, 0.10508728, -0.030014038, -0.11772156, 4943848, -0.27366686, -0.02611351, -0.088186264, 0, 0, 0
4943847, 0.08920288, -0.04710388, -0.100616455, 4943847, -0.21333253, 0.062253, -0.21626806, 0, 0, 0
4943848, 0.07331848, -0.08621216, -0.063964844, 4943848, -0.109087884, 0.05259943, -0.28841782, 0, 0, 0
4943847, 0.023239136, -0.1191864, -0.021224976, 4943847, 0.031676263, 0.0815835, -0.20286655, 0, 0, 0
4913331, 1.5258789E-5, -0.1338501, 0.0019989014, 4913331, 0.10863149, 0.14876604, -0.04164219, 0, 0, 0
4974365, -0.028076172, -0.13018799, 0.020324707, 4974365, 0.18408704, 0.24030113, 0.049410343, 0, 0, 0
4943847, -0.056167603, -0.116744995, 0.030090332, 4943847, 0.25688475, 0.24482346, 0.1502161, 0, 0, 0
4943848, -0.069610596, -0.09109497, 0.03741455, 4943848, 0.33114105, 0.2597065, 0.21467304, 0, 0, 0
4943848, -0.069610596, -0.05444336, 0.039855957, 4943848, 0.36015534, 0.19832182, 0.24142551, 0, 0, 0
4943847, -0.06593323, -0.017791748, 0.023971558, 4943847, 0.14214057, 0.08188963, 0.4189229, 0, 0, 0
7049561, -0.04396057, 0.004196167, 0.014205933, 7049561, -0.18877882, -0.05382967, 0.47722006, 0, 0, 0
5035401, 0.025680542, 0.031066895, 0.03253174, 7049561, -0.18877882, -0.05382967, 0.47722006, 0, 0, 0
5035400, 0.0476532, 0.04815674, 0.034973145, 5035400, -0.22144163, -0.085727215, 0.385427, 0, 0, 0
5035400, 0.0476532, 0.04815674, 0.034973145, 5035400, -0.07247347, -0.12438154, 0.113880634, 0, 0, 0
5035401, 0.06965637, 0.04815674, 0.027648926, 5035401, 0.055467874, -0.13008976, 0.04352951, 0, 0, 0
4943847, 0.08554077, 0.045715332, 0.030090332, 4943847, 0.115159154, -0.029757977, -0.024709225, 0, 0, 0
4943847, 0.062332153, 0.04815674, 0.019088745, 4943847, 0.115159154, -0.029757977, -0.024709225, 0, 0, 0
4943847, 0.062332153, 0.04815674, 0.019088745, 4943847, 0.15319255, 0.096272945, -0.105588436, 0, 0, 0
4943848, 0.045211792, 0.0335083, 0.014205933, 4943847, 0.15319255, 0.096272945, -0.105588436, 0, 0, 0
4943848, 0.045211792, 0.0335083, 0.014205933, 4943848, 0.14090571, 0.09643698, 0.02205515, 0, 0, 0
4943848, 0.035446167, -0.023895264, 0.006881714, 4943848, 0.14090571, 0.09643698, 0.02205515, 0, 0, 0
4943848, 0.035446167, -0.023895264, 0.006881714, 4943848, 0.27089462, 0.1132884, -0.0015263557, 0, 0, 0
4913330, 0.022003174, -0.04222107, -0.010223389, 4943848, 0.27089462, 0.1132884, -0.0015263557, 0, 0, 0
4913330, 0.022003174, -0.04222107, -0.010223389, 4913330, 0.22202995, 0.028195858, -0.07616854, 0, 0, 0
4943848, -0.0011901855, -0.049545288, -0.024871826, 4913330, 0.22202995, 0.028195858, -0.07616854, 0, 0, 0
4943848, -0.0011901855, -0.049545288, -0.024871826, 4943848, 0.054243714, -0.09446859, -0.0702281, 0, 0, 0
4943847, -0.00730896, -0.039779663, -0.019989014, 4943847, 0.030378759, -0.08825874, -0.06124735, 0, 0, 0
4943848, -0.00730896, -0.04222107, -0.02243042, 4943848, 0.04482475, -0.06698799, -0.0971818, 0, 0, 0
4974365, -0.019515991, -0.012893677, -0.032196045, 4943848, 0.04482475, -0.06698799, -0.0971818, 0, 0, 0
4943848, -0.020751953, 0.010314941, -0.024871826, 4913330, 0.029133648, -0.082167625, -0.038438797, 0, 0, 0
4943848, -0.029281616, 0.010314941, -0.035873413, 4974365, 0.0060832202, -0.040486336, 0.050674915, 0, 0, 0
4943847, -0.018295288, 0.013961792, -0.027313232, 4943848, -0.087004274, 0.011359692, 0.1042881, 0, 0, 0
4943848, -0.021957397, 0.028625488, -0.024871826, 4943848, -0.058818817, -0.024130821, 0.24485254, 0, 0, 0
4943848, 0.0061187744, 0.03227234, -0.02243042, 4943847, -0.16338283, -0.055106163, 0.2794881, 0, 0, 0
4943847, 0.037887573, 0.02494812, -0.011428833, 4943848, -0.1528016, -0.1425829, 0.46300983, 0, 0, 0
4943848, 0.057434082, 0.007873535, -0.0041046143, 4943848, -0.051434517, -0.16067266, 0.58719206, 0, 0, 0
4943848, 0.057434082, 0.007873535, -0.0041046143, 4943848, 0.09708476, -0.13389397, 0.48946905, 0, 0, 0
7049561, 0.07698059, 0.012756348, -4.5776367E-4, 7049561, 0.23405868, -0.04966402, 0.21818113, 0, 0, 0
5035400, 0.08920288, 0.026184082, 0.010528564, 5035400, 0.3411918, 0.0330348, -0.07800865, 0, 0, 0
5035400, 0.0953064, 0.045715332, 0.012969971, 5035400, 0.381589, 0.023946285, -0.29402065, 0, 0, 0
5035401, 0.079422, 0.06283569, 0.012969971, 5035401, 0.35818753, 0.013211727, -0.4127488, 0, 0, 0
5035400, 0.053771973, 0.04815674, -0.001663208, 5035400, 0.23021713, -0.02614069, -0.39830828, 0, 0, 0
4943848, 0.025680542, 0.0335083, -0.024871826, 4943848, 0.06416783, -0.042132854, -0.28936243, 0, 0, 0
4943847, -0.009750366, 0.027389526, -0.027313232, 4943847, -0.00979805, -0.109538555, -0.20606613, 0, 0, 0
4943848, -0.02319336, 0.028625488, -0.01876831, 4943848, -0.06783095, -0.17670488, -0.09075785, 0, 0, 0
4943848, -0.0390625, 0.02130127, -0.012664795, 4943848, -0.11573896, -0.18277788, 0.043420315, 0, 0, 0
4943847, -0.046401978, 0.012756348, -0.008987427, 4943847, -0.13892463, -0.19238329, 0.15525675, 0, 0, 0
4943848, -0.053726196, 0.012756348, -0.012664795, 4943848, -0.1231243, -0.20179844, 0.36753464, 0, 0, 0
4943848, -0.0390625, 0.0017547607, -0.008987427, 4943848, -0.08056021, -0.1704402, 0.47449207, 0, 0, 0
4943847, -0.0036315918, -0.008010864, -0.005340576, 4943847, -0.03783387, -0.12574863, 0.4161625, 0, 0, 0
4943848, 0.0158844, 0.016403198, 0.0032043457, 4943848, -0.024365604, -0.19500542, 0.39552116, 0, 0, 0
4943848, 0.03666687, 0.015197754, 0.0044403076, 4943848, 0.026160538, -0.16969776, 0.4125228, 0, 0, 0
4943847, 0.046447754, 0.005432129, 0.0044403076, 4943847, 0.07385436, -0.15415812, 0.36150932, 0, 0, 0
4943848, 0.058654785, -0.0019073486, -0.0041046143, 4943848, 0.057374477, -0.12041712, 0.2637658, 0, 0, 0
4943848, 0.06109619, -0.0019073486, -0.012664795, 4943848, 0.050646156, -0.14009428, 0.26063013, 0, 0, 0
4943847, 0.07698059, 0.016403198, -0.0077819824, 4943847, 0.066091806, -0.13829803, 0.23644352, 0, 0, 0
4943848, 0.06965637, 0.020065308, 0.0019989014, 4943848, 0.12370941, -0.092868805, 0.13077116, 0, 0, 0
4943848, 0.067214966, 0.045715332, 0.012969971, 4943848, 0.12309736, -0.13238668, 0.12786293, 0, 0, 0
4943847, 0.06843567, 0.039627075, 0.005645752, 4943847, 0.028100401, -0.08876562, 0.055088043, 0, 0, 0
4943848, 0.058654785, 0.04206848, 0.005645752, 4943848, 0.060566217, -0.09992027, 0.011151314, 0, 0, 0
4943848, 0.05255127, 0.05671692, 0.006881714, 4943848, 0.047366172, -0.12241459, 0.025844574, 0, 0, 0
4943847, 0.05621338, 0.0652771, 0.008087158, 4943847, 0.013775229, -0.11945152, -0.05515051, 0, 0, 0
4943848, 0.062332153, 0.07992554, 0.019088745, 4943848, 0.0048266053, -0.13915348, -0.06581354, 0, 0, 0
4943848, 0.06477356, 0.07992554, 0.017868042, 4943848, -0.03041637, -0.12689447, -0.015326977, 0, 0, 0
7049560, 0.06109619, 0.054275513, 0.00932312, 7049560, -0.06343818, -0.09221125, -0.1211524, 0, 0, 0
5035400, 0.053771973, 0.039627075, 0.010528564, 5035400, -0.13484186, -0.08170557, -0.19688082, 0, 0, 0
5035401, 0.023239136, 0.027389526, 0.020324707, 5035401, -0.18874002, -0.069293976, -0.17496777, 0, 0, 0
5035400, 1.5258789E-5, 0.016403198, 0.031295776, 5035401, -0.18874002, -0.069293976, -0.17496777, 0, 0, 0
4974365, -0.019515991, 0.035949707, 0.043533325, 5004883, -0.20248127, -0.012316227, -0.18240261, 0, 0, 0
4943848, -0.032958984, 0.06404114, 0.06062317, 5035400, -0.095121294, -0.07004595, -0.22372293, 0, 0, 0
4943848, -0.032958984, 0.06404114, 0.06062317, 4943848, -0.008650422, -0.14923954, -0.43806934, 0, 0, 0
4943848, -0.040283203, 0.0811615, 0.07284546, 4943848, -0.017442554, -0.17445612, -0.33084202, 0, 0, 0
4943847, -0.047607422, 0.0811615, 0.08262634, 4943847, -0.09079954, -0.1555686, -0.1815381, 0, 0, 0
4943848, -0.037841797, 0.050613403, 0.08628845, 4943848, -0.022135705, -0.1728344, -0.14909315, 0, 0, 0
4943847, -0.034179688, 0.045715332, 0.10827637, 4943848, -0.022135705, -0.1728344, -0.14909315, 0, 0, 0
4943847, -0.034179688, 0.045715332, 0.10827637, 4943847, 0.35826316, -0.20159388, -0.18661213, 0, 0, 0
4943848, 0.009796143, 0.045715332, 0.09971619, 4943848, 0.41418487, -0.13790798, -0.22911692, 0, 0, 0
4943848, 0.009796143, 0.13735962, 0.09971619, 4943848, 0.87790346, 0.012774944, -0.86594534, 0, 0, 0
4943847, 0.114852905, 0.50997925, 0.05696106, 4943847, 0.8612424, -0.0798502, -1.5027366, 0, 0, 0
4943848, 0.1307373, 0.6077118, 0.017868042, 4943848, 0.51066875, 0.022861958, -1.3669777, 0, 0, 0
4913330, 0.058654785, 0.51730347, -0.040756226, 4913330, -0.023090124, 0.17763329, -1.1916785, 1, 938, 1118
4913330, -0.14657593, 0.1984253, -0.11039734, 4913330, -0.023090124, 0.17763329, -1.1916785, 0, 0, 0
4974365, -0.22476196, 0.10681152, -0.07862854, 4974365, -0.59002686, 0.12837887, -0.9592905, 0, 0, 0
4974365, -0.22476196, 0.10681152, -0.07862854, 4974365, -0.50038004, 0.10216999, 0.46048737, 0, 0, 0
4943848, -0.25776672, -0.1179657, -0.01876831, 4974365, -0.50038004, 0.10216999, 0.46048737, 0, 0, 0
4943847, -0.23332214, -0.2303772, -0.0065460205, 4943848, -0.3396563, 0.049889565, 0.8580551, 0, 0, 0
4943847, -0.23332214, -0.2303772, -0.0065460205, 4943847, -0.21027493, -0.09186602, 1.7544293, 0, 0, 0
4943848, -0.17710876, -0.29756165, -0.013870239, 4943848, -0.14553958, -0.10096407, 1.932056, 0, 0, 0
4943848, -0.12702942, -0.31710815, -0.01876831, 4943848, -0.14474595, -0.13974476, 1.8459725, 0, 0, 0
4943847, -0.052505493, -0.30978394, -0.029754639, 4943847, -0.15184617, -0.23871088, 1.573823, 0, 0, 0
7049561, 0.08554077, -0.2694702, -0.01876831, 4943847, -0.15184617, -0.23871088, 1.573823, 0, 0, 0
7049561, 0.08554077, -0.2694702, -0.01876831, 7049561, -0.07472476, -0.49400282, 0.97152185, 0, 0, 0
5035400, 0.114852905, -0.26579285, -0.005340576, 5035400, 0.09654999, -0.59251595, 0.81425905, 0, 0, 0
5035400, 0.16494751, -0.22305298, -0.012664795, 5035400, 0.14875636, -0.6140022, 0.5853677, 0, 0, 0
5035401, 0.20892334, -0.12042236, -0.03465271, 5035401, -0.028545797, -0.19210291, 0.15066576, 0, 0, 0
5035400, 0.24069214, 0.005432129, -0.024871826, 5035400, 0.019882977, 0.0872097, -0.24888325, 0, 0, 0
4943848, 0.23701477, 0.08970642, -0.0077819824, 4943848, 0.1751715, 0.2616892, -0.668736, 0, 0, 0
4943847, 0.19059753, 0.10437012, 0.006881714, 4943847, 0.35792458, 0.2784338, -1.0508714, 0, 0, 0
4943848, 0.12463379, 0.067718506, 0.012969971, 4943848, 0.4439107, 0.27338743, -1.2065897, 0, 0, 0
4943848, 0.054992676, 0.0029907227, 0.0044403076, 4943848, 0.42346695, 0.24762487, -0.9738159, 0, 0, 0
4943847, -0.031723022, -0.031219482, -0.0065460205, 4943847, 0.43174753, 0.21271801, -0.6574578, 0, 0, 0
4943848, -0.09892273, -0.027572632, -0.0077819824, 4943848, 0.3199205, 0.11312199, -0.31713915, 0, 0, 0
4943848, -0.12580872, -0.021453857, -0.010223389, 4943848, 0.12908855, 0.0394063, 0.06478119, 0, 0, 0
4943847, -0.14289856, -0.028778076, -0.012664795, 4943847, -0.03332019, -0.045320988, 0.2435131, 0, 0, 0
4943848, -0.13191223, -0.039779663, 7.6293945E-4, 4943848, -0.17488724, -0.070487976, 0.4852481, 0, 0, 0
4943848, -0.11114502, -0.07521057, 0.010528564, 4943848, -0.29542544, -0.060017586, 0.59344196, 0, 0, 0
4943847, -0.076934814, -0.07154846, 0.019088745, 4943847, -0.35158172, -0.09238005, 0.61480236, 0, 0, 0
4943848, -0.06838989, -0.104537964, 0.023971558, 4943848, -0.29997918, -0.04174471, 0.71322155, 0, 0, 0
4943848, -0.05128479, -0.14607239, 0.026412964, 4943848, -0.18129641, 0.04822874, 0.7956085, 0, 0, 0
4943847, -0.025634766, -0.17539978, 0.026412964, 4943847, -0.018645316, 0.021508694, 0.7528238, 0, 0, 0
4943848, -0.019515991, -0.17416382, 0.026412964, 4943848, 0.11443424, -0.012477875, 0.6567502, 0, 0, 0
4943848, -0.006072998, -0.12774658, 0.03253174, 4943848, 0.2445153, -0.027840137, 0.506649, 0, 0, 0
4943847, 0.0317688, -0.06542969, 0.027648926, 4943847, 0.322567, -0.10245705, 0.28259945, 0, 0, 0
4943848, 0.04888916, -0.02633667, 0.010528564, 4943848, 0.29360232, -0.23989058, 0.27065182, 0, 0, 0
4943848, 0.07575989, 0.0029907227, -0.00289917, 4943848, 0.20938483, -0.24554157, 0.14788246, 0, 0, 0
4943847, 0.07575989, 0.0029907227, -4.5776367E-4, 4943847, 0.16236952, -0.27806568, 0.011010647, 0, 0, 0
4943848, 0.08430481, 0.017623901, -4.5776367E-4, 4943848, 0.05462542, -0.26603127, -0.13869715, 0, 0, 0
4943848, 0.074539185, 0.029830933, -0.005340576, 4943848, -9.961426E-4, -0.20759487, -0.17819166, 0, 0, 0
7049560, 0.06477356, 0.03227234, 0.015411377, 7049560, 0.043024927, -0.055514812, -0.27924633, 0, 0, 0
5035401, 0.042770386, 0.026184082, 0.023971558, 5035401, 0.13701597, -0.037421227, -0.3560052, 0, 0, 0
5035400, 0.025680542, 0.016403198, 0.02885437, 5035400, 0.21502605, -0.055356503, -0.31092453, 0, 0, 0
5035400, 0.018341064, 0.026184082, 0.021530151, 5035400, 0.34329733, -0.030408382, -0.24745417, 0, 0, 0
5035401, 0.0012359619, 0.039627075, 0.014205933, 5035401, 0.4124704, 0.014721394, -0.27656794, 0, 0, 0
4943847, -0.014633179, 0.046951294, 0.006881714, 4943847, 0.37867892, 0.047388554, -0.33950186, 0, 0, 0
4943848, -0.028076172, 0.044509888, -0.0065460205, 4943848, 0.26676622, -0.009736061, -0.27020788, 0, 0, 0
4913330, -0.0390625, 0.034729004, -0.027313232, 4913330, 0.07902601, -0.07862091, -0.15788126, 0, 0, 0
4974365, -0.04396057, 0.011520386, -0.03831482, 4974365, -0.074260086, -0.09148407, -0.10023546, 0, 0, 0
4943848, -0.0390625, -0.0104522705, -0.03831482, 4943848, -0.17383587, -0.13620996, 0.06292486, 0, 0, 0
4943848, -0.0390625, -0.0104522705, -0.0309906, 4943848, -0.24692601, -0.1335764, 0.29995108, 0, 0, 0
4943848, -0.031723022, -0.056884766, -0.040756226, 4943848, -0.24692601, -0.1335764, 0.29995108, 0, 0, 0
4943848, -0.031723022, -0.056884766, -0.040756226, 4943848, -0.21175322, -0.18481064, 0.4219513, 0, 0, 0
4943848, -0.02319336, -0.07032776, -0.026107788, 4943848, -0.10797572, -0.19533682, 0.3334732, 0, 0, 0
4943848, 0.042770386, -0.05444336, -0.027313232, 4943848, -0.10797572, -0.19533682, 0.3334732, 0, 0, 0
4943848, 0.0635376, -0.04222107, -0.016311646, 4943847, 0.002797693, -0.18867874, 0.19250679, 0, 0, 0
4943847, 0.051330566, -0.019012451, -0.013870239, 4943848, 0.0744687, -0.17847776, 0.019869328, 0, 0, 0
4943848, 0.04888916, -0.005569458, -0.016311646, 4943848, 0.17758083, -0.11746216, -0.13369274, 0, 0, 0
4943848, 0.03300476, -0.0104522705, -0.01876831, 4943847, 0.21165091, -0.05063486, -0.23195648, 0, 0, 0
4943847, 0.008560181, -0.0104522705, -0.0309906, 4943848, 0.1918622, -0.0047893524, -0.24431133, 0, 0, 0
4943848, -0.019515991, -0.02633667, -0.028549194, 4943848, 0.08728281, -0.034708977, -0.23888874, 0, 0, 0
4943848, -0.015838623, -0.023895264, -0.021224976, 4943847, 0.0015022457, -0.03586626, -0.18030405, 0, 0, 0
4943848, -0.015838623, -0.023895264, -0.021224976, 4943848, -0.09590042, -0.10399675, -0.10294914, 0, 0, 0
4882812, -0.024398804, -0.02267456, -0.015106201, 4882812, -0.10938689, -0.17542267, 0.04021263, 0, 0, 0
4943848, -0.032958984, -0.00680542, -0.0077819824, 4882812, -0.10938689, -0.17542267, 0.04021263, 0, 0, 0
4913330, -0.031723022, -0.0031280518, -0.0041046143, 4974365, -0.031718075, -0.1237421, 0.121602535, 0, 0, 0
4913330, -0.031723022, -0.0031280518, -0.0041046143, 4913330, 0.07397434, -0.1246562, 0.4314561, 0, 0, 0
7080078, -0.032958984, -6.866455E-4, -0.001663208, 7080078, 0.07322568, -0.07934666, 0.48689508, 0, 0, 0
5035401, -0.008514404, 0.007873535, -0.005340576, 5035401, 0.07566953, -0.12210846, 0.5070095, 0, 0, 0
5035400, 0.011001587, 0.004196167, 0.0032043457, 5035400, 0.05381465, -0.12292719, 0.5232973, 0, 0, 0
5004883, 0.037887573, 0.0090789795, -0.00289917, 5004883, 0.013742894, -0.121650696, 0.40774727, 0, 0, 0
5065918, 0.057434082, 0.011520386, -4.5776367E-4, 5065918, -0.037839293, -0.1369195, 0.2891121, 0, 0, 0
4943847, 0.06965637, 0.013961792, -0.00289917, 4943847, -0.023995578, -0.15379143, 0.22435093, 0, 0, 0
4943848, 0.070877075, 0.016403198, -0.0077819824, 4943848, 0.008374184, -0.13584614, 0.083786964, 0, 0, 0
4913330, 0.067214966, 0.015197754, -0.005340576, 4913330, 0.02376467, -0.14374018, -0.0603981, 0, 0, 0
4974365, 0.053771973, 0.023742676, -0.0041046143, 4974365, -0.015752465, -0.14962149, -0.02287817, 0, 0, 0
4913330, 0.04156494, 0.012756348, 0.0032043457, 4913330, -0.048054785, -0.084370136, -0.03874159, 0, 0, 0
4974366, 0.022003174, 0.011520386, 7.6293945E-4, 4974366, -0.04001218, -0.031260014, -0.10629749, 0, 0, 0
4943847, 0.012237549, 0.016403198, 0.00932312, 4943847, 6.172359E-4, -0.0522151, -0.026052475, 0, 0, 0
4943848, -0.00730896, 0.010314941, 0.010528564, 4943848, 0.06946513, -0.051845074, 0.05916643, 0, 0, 0
4913330, -0.013397217, 0.020065308, 0.015411377, 4913330, 0.12870342, -0.028912067, 0.10459471, 0, 0, 0
4974365, -0.018295288, 0.022506714, 0.008087158, 4974365, 0.17048642, -0.060291767, 0.18638468, 0, 0, 0
4913330, -0.0048675537, 0.013961792, -0.0065460205, 4913330, 0.11665475, -0.1038928, 0.2135644, 0, 0, 0
4974366, 0.0024719238, 0.004196167, -0.005340576, 4974366, 0.0058469474, -0.081489086, 0.18472147, 0, 0, 0
4943847, -0.0024261475, -0.0104522705, -0.0065460205, 4943847, -0.059391767, -0.1066885, 0.116987705, 0, 0, 0
4943848, -0.012191772, -0.009246826, -0.013870239, 4943848, -0.12308347, -0.14390707, 0.100613594, 0, 0, 0
4943848, -0.012191772, -0.020233154, -0.012664795, 4943848, -0.11391172, -0.12387657, 0.026054382, 0, 0, 0
4913330, -0.024398804, -6.866455E-4, -0.0065460205, 4913330, -0.05402586, -0.1347146, -0.042746067, 0, 0, 0
4974365, -0.031723022, 0.0090789795, -0.0065460205, 4974365, -0.025892615, -0.15897417, -0.044158936, 0, 0, 0
4943847, -0.031723022, 0.0090789795, 7.6293945E-4, 4943847, -0.006149918, -0.10550499, -0.14040995, 0, 0, 0
5035401, -0.04396057, 0.0066375732, 7.6293945E-4, 5035401, -0.0022307932, -0.1334219, -0.15539837, 0, 0, 0
4821777, -0.050048828, 0.018859863, 0.006881714, 4821777, -0.030468583, -0.12839842, -0.23245144, 0, 0, 0
4974365, -0.0549469, 0.04206848, 0.02520752, 4974365, -0.06277177, -0.1438613, -0.33329153, 0, 0, 0
4943848, -0.07449341, 0.050613403, 0.03253174, 4943848, -0.20600119, -0.1812458, -0.24194336, 0, 0, 0
5065918, -0.019515991, 0.07015991, 0.09727478, 4943848, -0.20600119, -0.1812458, -0.24194336, 0, 0, 0
5035400, 0.022003174, 0.07015991, 0.10217285, 7019043, -0.17065546, -0.322505, -0.041679382, 0, 0, 0
5004883, 0.098968506, 0.22042847, 0.08139038, 5065918, -0.01319176, -0.37121058, -0.09932423, 0, 0, 0
5065918, 0.20404053, 0.48553467, 0.036193848, 5035400, 0.10068539, -0.36898136, -0.06726408, 0, 0, 0
4943848, 0.18939209, 0.40490723, 0.0044403076, 5004883, 0.41429022, -0.38210583, -0.1422286, 0, 0, 0
4913330, 0.08554077, 0.2485199, -0.060302734, 5065918, 0.91853225, -0.057579517, -1.0079231, 0, 0, 0
4943848, -0.04396057, 0.2485199, -0.09207153, 4943848, 0.8680037, 0.20480108, -1.2432122, 1, 952, 1165
4943847, -0.04396057, 0.09458923, -0.09207153, 4913330, 0.47963798, 0.5206642, -1.1580033, 0, 0, 0
4943847, -0.04396057, 0.09458923, -0.09207153, 4943847, -0.4374156, 0.2742591, -0.7228565, 0, 0, 0
4974366, -0.15878296, 0.023742676, -0.07740784, 4974366, -0.16118726, -0.012180328, -0.043147564, 0, 0, 0
4943847, -0.2821808, -0.07032776, -0.03465271, 4974366, -0.16118726, -0.012180328, -0.043147564, 0, 0, 0
4943847, -0.2821808, -0.07032776, -0.03465271, 4943847, 0.07684052, -0.46070623, 1.118125, 0, 0, 0
4943848, -0.26753235, -0.1338501, -0.029754639, 4943848, -0.03607294, -0.60983896, 1.512703, 0, 0, 0
4943848, -0.21743774, -0.19737244, -0.028549194, 4943848, -0.13872889, -0.5713439, 1.8461847, 0, 0, 0
4943848, -0.080596924, -0.2303772, -0.011428833, 4943848, -0.13872889, -0.5713439, 1.8461847, 0, 0, 0
4943848, -0.080596924, -0.2303772, -0.011428833, 4943848, -0.5237421, -0.26089525, 1.3654404, 0, 0, 0
4943848, -0.009750366, -0.22914124, 0.00932312, 4943848, -0.45856073, -0.14417744, 0.9343853, 0, 0, 0
4943848, 0.062332153, -0.23646545, 0.04109192, 4943848, -0.45856073, -0.14417744, 0.9343853, 0, 0, 0
5462646, 0.08554077, -0.19981384, 0.039855957, 4943847, -0.28885847, -0.05782461, 0.5636301, 0, 0, 0
4425049, 0.0953064, -0.08131409, 0.012969971, 4943848, 0.100868374, -0.069185734, 0.33509493, 0, 0, 0
4425049, 0.0953064, -0.08131409, 0.012969971, 4425049, 0.78444445, -0.14777279, -0.07110739, 0, 0, 0
4943848, 0.11607361, 0.14834595, -0.068862915, 4425049, 0.78444445, -0.14777279, -0.07110739, 0, 0, 0
4943847, 0.10630798, 0.17033386, -0.09451294, 4943848, 0.7527986, -0.101483345, -0.48232794, 0, 0, 0
4943847, 0.10630798, 0.17033386, -0.09451294, 4943847, 0.12791118, -0.0094566345, -0.87809515, 0, 0, 0
4943848, 0.054992676, 0.13002014, -0.096954346, 4943848, -0.07892135, 0.06140566, -0.8836012, 0, 0, 0
4943848, -0.0011901855, 0.066482544, -0.07496643, 4943848, -0.22350866, 0.1440258, -0.534276, 0, 0, 0
4913330, -0.073272705, 0.005432129, -0.0627594, 4913330, -0.29171497, 0.21738625, -0.1695075, 0, 0, 0
7080078, -0.10992432, -0.052001953, -0.052978516, 7080078, -0.19349545, 0.24982691, 0.09335947, 0, 0, 0
5035400, -0.14289856, -0.08131409, -0.024871826, 5035400, -0.17801249, 0.17986345, 0.45798445, 0, 0, 0
5035401, -0.14535522, -0.09841919, -0.013870239, 5035401, -0.14787689, 0.07587004, 0.7415991, 0, 0, 0
5035400, -0.13557434, -0.100860596, 0.008087158, 5035400, -0.15778154, -0.024864674, 0.95203257, 0, 0, 0
5035400, -0.10626221, -0.09963989, 0.019088745, 5035400, -0.16887039, -0.07126188, 1.0676908, 0, 0, 0
4943848, -0.045166016, -0.10942078, 0.022766113, 4943848, -0.23019895, -0.06932783, 1.0462275, 0, 0, 0
4974365, 1.5258789E-5, -0.1179657, 0.031295776, 4974365, -0.22146878, -0.05287409, 0.9167657, 0, 0, 0
4913330, 0.05255127, -0.12651062, 0.039855957, 4913330, -0.1530436, -0.043129444, 0.7522435, 0, 0, 0
4943848, 0.07698059, -0.13018799, 0.039855957, 4943848, -0.07474488, 0.03947878, 0.55567884, 0, 0, 0
4943848, 0.08920288, -0.12896729, 0.047180176, 4943848, 0.0044777095, 0.035127163, 0.38494778, 0, 0, 0
4943847, 0.0965271, -0.09963989, 0.04597473, 4943847, 0.13009721, 0.0013279915, 0.262887, 0, 0, 0
4943848, 0.0977478, -0.049545288, 0.03253174, 4943848, 0.2304171, -0.05019331, 0.12377453, 0, 0, 0
4943848, 0.09164429, 0.0017547607, 0.03375244, 4943848, 0.29155022, -0.101092815, 0.010687828, 0, 0, 0
4943847, 0.0818634, 0.043273926, 0.026412964, 4943847, 0.33409083, -0.1310401, -0.14090776, 0, 0, 0
4943848, 0.067214966, 0.05795288, 0.022766113, 4943848, 0.29280424, -0.13509226, -0.24519396, 0, 0, 0
4943848, 0.04888916, 0.059158325, 0.02520752, 4943848, 0.23026812, -0.14043808, -0.2503872, 0, 0, 0
4943847, 0.04888916, 0.055496216, 0.019088745, 4943847, 0.18647519, -0.11185026, -0.22230768, 0, 0, 0
4943848, 0.03300476, 0.05671692, 0.026412964, 4943848, 0.2009525, -0.102194786, -0.120666504, 0, 0, 0
4943848, 0.025680542, 0.05305481, 0.012969971, 4943848, 0.2551905, -0.06096077, -0.018298626, 0, 0, 0
4943847, 0.030563354, 0.05305481, -0.0041046143, 4943847, 0.3474878, -0.017311096, 0.043973446, 0, 0, 0
4943848, 0.030563354, 0.034729004, -0.0041046143, 4943848, 0.34999752, -0.012232304, 0.109025955, 0, 0, 0
4943848, 0.035446167, 0.0335083, -0.010223389, 4943848, 0.28620714, -0.032063484, 0.11114073, 0, 0, 0
4943847, 0.02079773, 0.031066895, -0.027313232, 4943847, 0.1722613, -0.06996298, 0.1582427, 0, 0, 0
4913330, 0.019561768, 0.038391113, -0.0309906, 4913330, 0.058826238, -0.051552773, 0.14867735, 0, 0, 0
4974365, 0.0317688, 0.04815674, -0.032196045, 4974365, -0.029395819, -0.10582447, 0.054157257, 0, 0, 0
4943848, 0.034225464, 0.03718567, -0.029754639, 4943848, -0.10174352, -0.15023565, 0.088104725, 0, 0, 0
4943848, 0.044006348, 0.022506714, -0.017547607, 4943848, -0.15660715, -0.14786577, 0.080013275, 0, 0, 0
5004883, 0.053771973, -0.0031280518, -0.0041046143, 4943848, -0.15660715, -0.14786577, 0.080013275, 0, 0, 0
5065918, 0.053771973, -0.009246826, -0.010223389, 7049560, -0.056533843, -0.13034868, -0.0023550987, 0, 0, 0
5035401, 0.06109619, -0.008010864, -0.017547607, 5004883, 0.036219627, -0.10560465, -0.015939713, 0, 0, 0
5035400, 0.0635376, 5.493164E-4, -0.017547607, 5065918, 0.1362541, -0.059394836, -0.090872765, 0, 0, 0
4943848, 0.062332153, 5.493164E-4, -0.01876831, 5035401, 0.18361467, -0.07157612, -0.16174412, 0, 0, 0
4943847, 0.062332153, 0.013961792, -0.01876831, 5035400, 0.14700201, -0.09198332, -0.24591398, 0, 0, 0
4943848, 0.05255127, 0.013961792, -0.0065460205, 4943848, 0.16827706, -0.102698326, -0.341506, 0, 0, 0
4943848, 0.05255127, 0.013961792, -0.0065460205, 4943848, 0.048555017, -0.14422655, -0.24077606, 0, 0, 0
4943847, 0.0024719238, -0.0019073486, -0.00289917, 4943848, 0.048555017, -0.14422655, -0.24077606, 0, 0, 0
4943847, 0.0024719238, -0.0019073486, -0.00289917, 4943847, 0.04002887, -0.15758657, -0.14458323, 0, 0, 0
4943848, -0.017074585, -0.02633667, -0.0041046143, 4943848, 0.032173276, -0.12597895, -0.06837845, 0, 0, 0
4913330, -0.012191772, -0.028778076, -0.005340576, 4913330, 0.03457156, -0.1579814, 0.06102085, 0, 0, 0
4943848, -0.006072998, -0.017791748, 0.008087158, 4913330, 0.03457156, -0.1579814, 0.06102085, 0, 0, 0
4943847, -0.014633179, -0.0031280518, 0.008087158, 4974365, 0.03312555, -0.11281347, 0.13127327, 0, 0, 0
4943848, 0.0012359619, 0.007873535, 0.006881714, 4943848, 0.08827397, -0.14550114, 0.15459013, 0, 0, 0
4943848, 0.0012359619, 0.007873535, 0.006881714, 4943848, 0.12814754, -0.16940117, 0.047941208, 0, 0, 0
4943847, 0.025680542, 0.038391113, 0.005645752, 4943848, 0.12814754, -0.16940117, 0.047941208, 0, 0, 0
4943848, -0.008514404, 0.03227234, -0.0041046143, 4943848, 0.092155725, -0.15849638, 0.067792416, 0, 0, 0
4943848, -0.0048675537, 0.016403198, -0.011428833, 4943847, 0.04294902, -0.11061382, 0.010785103, 0, 0, 0
4943847, -0.019515991, 0.018859863, -0.011428833, 4943848, 0.05099994, -0.12951946, -0.0936203, 0, 0, 0
4943847, -0.019515991, 0.018859863, -0.011428833, 4943847, 0.042224854, -0.12751198, -0.090420246, 0, 0, 0
4943848, -0.03540039, 0.018859863, -0.010223389, 4943848, -0.07760808, -0.06694269, -0.03092575, 0, 0, 0
4943848, -0.061050415, 0.0090789795, -0.0041046143, 4943848, -0.15550923, 0.0048236847, 0.022265911, 0, 0, 0
4943847, -0.09526062, -0.009246826, 0.008087158, 4943847, -0.091050774, 0.029223442, 0.0855093, 0, 0, 0
4943848, -0.11846924, 0.0066375732, 0.04597473, 4943847, -0.091050774, 0.029223442, 0.0855093, 0, 0, 0
4943847, -0.113586426, 0.035949707, 0.06430054, 4943848, -0.058867097, -0.023012161, 0.120722294, 0, 0, 0
4943847, -0.113586426, 0.035949707, 0.06430054, 4943847, 0.075900644, -0.20370913, 0.05322504, 0, 0, 0
7049561, -0.1026001, 0.051834106, 0.08383179, 7049561, 0.041329533, -0.24081898, 0.1125412, 0, 0, 0
5035400, -0.09159851, 0.06404114, 0.08872986, 5035400, -0.026207894, -0.2894683, 0.081721306, 0, 0, 0
5035401, -0.061050415, 0.067718506, 0.09239197, 5035401, -0.10699281, -0.27516127, -0.07144642, 0, 0, 0
5035400, -0.028076172, 0.07382202, 0.09361267, 5035400, -0.11526504, -0.19597006, -0.23802471, 0, 0, 0
5035400, 0.06965637, 0.345047, 0.08139038, 5035400, 0.09079811, -0.32574177, -0.03241253, 0, 0, 0
4943848, 0.18083191, 0.7140198, 0.039855957, 4943848, 0.7519511, -0.0635066, -1.123569, 0, 0, 0
4943848, 0.1759491, 0.6663666, -0.01876831, 4943848, 0.87144566, 0.14476347, -1.3267031, 0, 0, 0
4943847, 0.10018921, 0.477005, -0.096954346, 4943847, 0.2010737, 0.55372286, -1.2447681, 1, 973, 1168
4913330, -0.024398804, 0.2668457, -0.11772156, 4913330, -0.56257826, 0.54484653, -1.1491537, 0, 0, 0
4974366, -0.13069153, 0.10681152, -0.09817505, 4974366, -0.64084506, 0.32024574, -0.5773907, 0, 0, 0
4943847, -0.21620178, -0.023895264, -0.063964844, 4943847, -0.3617236, 0.16184616, 0.04567623, 0, 0, 0
4943848, -0.26385498, -0.13140869, -0.0309906, 4943848, -0.16599679, -0.03471279, 0.6506033, 0, 0, 0
4943848, -0.2711792, -0.19737244, -0.012664795, 4943848, -0.03036815, -0.14920616, 1.1855536, 0, 0, 0
4943847, -0.23820496, -0.2169342, -0.013870239, 4943847, 0.06377643, -0.15050793, 1.5903106, 0, 0, 0
4943848, -0.18078613, -0.2010498, -0.01876831, 4943848, 0.051813245, -0.14078951, 1.7140174, 0, 0, 0
4943848, -0.10870361, -0.20349121, -0.03831482, 4943848, 0.037971556, -0.20270252, 1.6109176, 0, 0, 0
4943847, -0.047607422, -0.23526001, -0.060302734, 4943847, -0.022104919, -0.27252102, 1.3951836, 0, 0, 0
4943848, 0.0012359619, -0.23526001, -0.0627594, 4943848, -0.021586329, -0.3577485, 1.2486529, 0, 0, 0
4943848, 0.0012359619, -0.30000305, -0.0627594, 4943848, -0.027057141, -0.3579054, 1.0608687, 0, 0, 0
4943847, 0.028121948, -0.34521484, -0.06764221, 4943847, -0.006238401, -0.35810232, 0.8535409, 0, 0, 0
4943848, 0.044006348, -0.35253906, -0.065200806, 4943848, -0.08982116, -0.35951853, 0.69214106, 0, 0, 0
4943848, 0.045211792, -0.32688904, -0.041992188, 4943848, 0.1812365, -0.58266735, 0.6034732, 0, 0, 0
4943847, 0.04156494, -0.2010498, -0.021224976, 4943847, 0.3954115, -0.6315093, 0.50077343, 0, 0, 0
4943848, 0.070877075, 0.016403198, -0.008987427, 4943848, 0.20556197, -0.3046465, 0.12656355, 0, 0, 0
